gyro.x_x,gyro.x_y,gyro.y_x,gyro.y_y,gyro.z_x,gyro.z_y
459256.,2.687664032,459256.,-0.2955729663,459256.,40.3592262268
459276.,2.5060753822,459276.,-0.077007629,459276.,38.6320152283
459296.,2.4462256432,459296.,-0.0048837387,459296.,36.5010719299
459316.,2.1785273552,459316.,-0.1838698089,459316.,34.2316780090
459336.,2.0884599686,459336.,-0.1825869232,459336.,31.1986827850
459356.,1.6626311541,459356.,-0.2182240188,459356.,28.0883026123
459376.,1.4319839478,459376.,-0.098570399,459376.,24.5987052917
459396.,1.2181581259,459396.,-0.0278096069,459396.,21.0689105988
459416.,1.0846159458,459416.,0.3022885025,459416.,17.0168361664
459436.,0.9194626212,459436.,0.3300455213,459436.,13.4292545319
459456.,0.5014384985,459456.,0.044177901,459456.,9.4579486847
459476.,0.3167953789,459476.,0.1386444122,459476.,5.2906651497
459496.,-0.092123054,459496.,0.3824279606,459496.,1.1917347908
459516.,-0.2021564543,459516.,0.3391622901,459516.,-2.7967345715
459536.,-0.5493507385,459536.,0.1108497307,459536.,-6.9169163704
459556.,-0.6628608108,459556.,0.1347363144,459556.,-10.8104114532
459576.,-0.7710357308,459576.,0.2539653480,459576.,-14.7231454849
459596.,-1.0323573351,459596.,-0.0734426752,459596.,-18.4332695007
459616.,-1.2319153547,459616.,-0.3099386096,459616.,-22.0429077148
459636.,-1.5482450724,459636.,-0.0515133925,459636.,-25.3862762451
459656.,-1.5184932947,459656.,-0.0965026915,459656.,-28.1857204437
459676.,-1.7067644596,459676.,-0.2315959632,459676.,-30.6814231873
459696.,-1.7528557777,459696.,-0.1234117523,459696.,-33.2583541870
459716.,-1.8246587515,459716.,-0.7087053061,459716.,-35.3919563293
459736.,-1.7365509272,459736.,-0.5016129017,459736.,-37.3873062134
459756.,-1.7618842125,459756.,-0.340364486,459756.,-38.7409744263
459776.,-1.9043388367,459776.,-1.0539338589,459776.,-39.6174697876
459796.,-1.8791189194,459796.,-0.8513059616,459796.,-40.2955055237
459816.,-2.0024054050,459816.,-0.7417176962,459816.,-40.3930282593
459836.,-1.5545711517,459836.,-1.0146325827,459836.,-40.4328842163
459856.,-1.7507724762,459856.,-0.9271309972,459856.,-39.7319488525
459876.,-1.4457360506,459876.,-1.1435393095,459876.,-38.6992340088
459896.,-1.3938264847,459896.,-1.1505327225,459896.,-37.2003517151
459916.,-1.2737312317,459916.,-1.0779964924,459916.,-36.0207710266
459936.,-1.0489851236,459936.,-1.1345883608,459936.,-33.4925308228
459956.,-1.0453577042,459956.,-0.9843531251,459956.,-31.5721282959
459976.,-0.8169630766,459976.,-0.8575959206,459976.,-28.7087593079
459996.,-0.5487053394,459996.,-0.9069355130,459996.,-25.6346950531
460016.,-0.7376587987,460016.,-0.7149417996,460016.,-22.5869102478
460036.,-0.4580157697,460036.,-0.6001890898,460036.,-18.8649578094
460056.,-0.2518070042,460056.,-0.6110715866,460056.,-15.2037639618
460076.,-0.1402401924,460076.,-0.4395352602,460076.,-11.4493551254
460096.,-0.0496819206,460096.,-0.3446250856,460096.,-7.409406662
460116.,0.2523856461,460116.,-0.6056085825,460116.,-3.4782762527
460136.,0.4899650514,460136.,-0.3126430511,460136.,0.5427994132
460156.,0.6839445233,460156.,-0.1799760312,460156.,4.4344735146
460176.,0.8903107643,460176.,-0.3053090572,460176.,8.591960907
460196.,1.0556931496,460196.,-0.2133915722,460196.,12.5398683548
460216.,1.4130376577,460216.,-0.2524710596,460216.,16.1028137207
460236.,1.4361108541,460236.,-0.5881564617,460236.,20.0242309570
460256.,1.7034820318,460256.,-0.2312338799,460256.,23.2963008881
460276.,1.8238431215,460276.,-0.1990695596,460276.,26.8673667908
460296.,2.3640460968,460296.,-0.4926761985,460296.,30.1123390198
460316.,2.4994032383,460316.,-0.8155289888,460316.,33.0466194153
460336.,2.8029046059,460336.,-0.6429660916,460336.,35.5304641724
460356.,3.0818881989,460356.,-0.8236289620,460356.,37.7905883789
460376.,2.9707813263,460376.,-1.0902612209,460376.,39.8173408508
460396.,3.0134747028,460396.,-1.3881531954,460396.,41.2802124023
460416.,3.0882329941,460416.,-1.1506977081,460416.,42.4940338135
460436.,3.4880518913,460436.,-1.208424449,460436.,43.2237205505
460456.,3.6717000008,460456.,-1.1467590332,460456.,43.5522346497
460476.,3.6571016312,460476.,-1.3793069124,460476.,43.7029609680
460496.,3.5070393085,460496.,-1.3418782949,460496.,42.9344406128
460516.,3.4415774345,460516.,-1.3708386421,460516.,42.6491966248
460536.,3.3568966389,460536.,-1.2162411213,460536.,41.6341781616
460556.,3.5345516205,460556.,-1.0495878458,460556.,39.8781700134
460576.,3.1466579437,460576.,-0.9607273340,460576.,38.0894813538
460596.,2.8633537292,460596.,-1.0663642883,460596.,35.8272285461
460616.,2.6502768993,460616.,-1.0437172651,460616.,33.4255981445
460636.,2.7160921097,460636.,-0.8981708884,460636.,30.5892543793
460656.,2.1838121414,460656.,-0.2553411424,460656.,27.7665328979
460676.,1.8013199568,460676.,-0.2622543275,460676.,24.5422725677
460696.,1.5911911726,460696.,-0.0461474024,460696.,20.7862129211
460716.,1.1352021694,460716.,-0.0285007227,460716.,17.1834259033
460736.,0.7935801744,460736.,-0.1088575125,460736.,13.4052715302
460756.,0.4964843094,460756.,0.4044440091,460756.,9.3648691177
460776.,0.0263196062,460776.,0.6491900682,460776.,5.4294695854
460796.,-0.4299161732,460796.,0.5884598494,460796.,1.3593888283
460816.,-0.6033013463,460816.,0.666800499,460816.,-2.5369389057
460836.,-0.8618701696,460836.,0.8583629727,460836.,-6.5157837868
460856.,-1.1583065987,460856.,0.8804639578,460856.,-10.3169746399
460876.,-1.8211388588,460876.,1.0744650364,460876.,-14.3834514618
460896.,-1.70317626,460896.,0.8980492353,460896.,-18.0195732117
460916.,-2.1199150085,460916.,1.0399705172,460916.,-21.3923606873
460936.,-2.1330549717,460936.,0.9090844393,460936.,-24.6063270569
460956.,-2.4065368176,460956.,0.9580327868,460956.,-27.6208896637
460976.,-2.5764293671,460976.,1.0677779913,460976.,-30.4906959534
460996.,-2.5859687328,460996.,1.0131310225,460996.,-32.8670272827
461016.,-2.7932476997,461016.,0.9608579278,461016.,-34.7266654968
461036.,-2.3964850903,461036.,0.8939492702,461036.,-36.7846298218
461056.,-2.666233778,461056.,0.4827096462,461056.,-38.0602912903
461076.,-2.4456732273,461076.,0.6950399876,461076.,-38.7363471985
461096.,-2.6188342571,461096.,0.3215985000,461096.,-39.4173812866
461116.,-2.4508471489,461116.,0.2243216783,461116.,-39.6082801819
461136.,-2.3437812328,461136.,0.1156148911,461136.,-39.6583213806
461156.,-2.4633965492,461156.,-0.1181615815,461156.,-39.2110328674
461176.,-2.0022399426,461176.,-0.3618353605,461176.,-38.4172325134
461196.,-2.0766189098,461196.,-0.3670888245,461196.,-36.6805191040
461216.,-1.685885191,461216.,-0.4501402080,461216.,-35.2582855225
461236.,-1.6691895723,461236.,-0.2557383776,461236.,-33.1686973572
461256.,-1.5016314983,461256.,-0.6804003716,461256.,-30.9229869843
461276.,-1.2945696115,461276.,-0.5180407166,461276.,-28.1686306
461296.,-0.9748596549,461296.,-0.5345203280,461296.,-25.3627052307
461316.,-0.706407547,461316.,-0.5199224949,461316.,-21.9617023468
461336.,-0.4602383971,461336.,-0.5350724459,461336.,-18.7250270844
461356.,-0.3195509017,461356.,-0.5855692029,461356.,-15.4162254333
461376.,-0.2138726413,461376.,-0.3674636483,461376.,-11.5174264908
461396.,-0.0873339772,461396.,-0.63998276,461396.,-7.6121821404
461416.,0.413099438,461416.,-0.4358617067,461416.,-4.1084818840
461436.,0.5226060748,461436.,-0.5702594519,461436.,0.3384144902
461456.,0.8938412070,461456.,-0.5956299901,461456.,4.471903801
461476.,0.8600104451,461476.,-0.7207040191,461476.,8.2781534195
461496.,1.397572279,461496.,-0.4133333862,461496.,12.0978908539
461516.,1.4932734966,461516.,-0.8374756575,461516.,15.9656524658
461536.,1.6042668819,461536.,-0.5554323792,461536.,19.8611888885
461556.,2.0934865475,461556.,-0.3708086908,461556.,23.3785457611
461576.,2.0517938137,461576.,-0.5761590600,461576.,26.6650047302
461596.,2.5625154972,461596.,-0.5122767687,461596.,29.6910572052
461616.,2.8283963203,461616.,-0.7913372517,461616.,32.3236656189
461636.,2.7582483292,461636.,-0.6356457472,461636.,34.8923416138
461656.,2.8965358734,461656.,-1.0446844101,461656.,37.6636314392
461676.,3.3316273689,461676.,-1.0551704168,461676.,39.1597175598
461696.,3.2612230778,461696.,-1.1193040609,461696.,40.8814430237
461716.,3.4774487019,461716.,-1.0754812956,461716.,41.9684562683
461736.,3.6939868927,461736.,-1.5330958366,461736.,42.606590271
461756.,3.5336165428,461756.,-1.4331123829,461756.,43.0157661438
461776.,3.6526086330,461776.,-1.6146019697,461776.,43.3178443909
461796.,3.6840052605,461796.,-1.3198250532,461796.,42.8147773743
461816.,3.5368416309,461816.,-1.6021230221,461816.,42.2783126831
461836.,3.7571597099,461836.,-1.5892779827,461836.,40.7272720337
461856.,3.4023458958,461856.,-1.6742631197,461856.,39.2690429688
461876.,3.3971173763,461876.,-1.6658837795,461876.,37.5818901062
461896.,3.2782492638,461896.,-1.6851050854,461896.,35.429599762
461916.,3.2728052139,461916.,-1.4449361563,461916.,32.8552055359
461936.,2.7886373997,461936.,-1.6250097752,461936.,30.2755355835
461956.,2.7151606083,461956.,-1.6135263443,461956.,27.3164749146
461976.,2.2599124908,461976.,-1.6429380178,461976.,23.9682044983
461996.,2.1503443718,461996.,-1.1647458076,461996.,20.6351413727
462016.,2.0638823509,462016.,-1.3159245253,462016.,16.9648876190
462036.,1.5362157822,462036.,-0.9481841326,462036.,13.4280281067
462056.,1.3933767080,462056.,-1.0977348089,462056.,9.6117057800
462076.,0.9521586895,462076.,-0.9105823040,462076.,5.6000680923
462096.,0.5587304235,462096.,-0.8765785694,462096.,1.2084078789
462116.,0.2929688096,462116.,-0.6409206390,462116.,-2.7533257008
462136.,-0.2647546828,462136.,-0.5348794460,462136.,-6.4868655205
462156.,-0.271465838,462156.,-0.5125807524,462156.,-10.2316532135
462176.,-0.8315801620,462176.,-0.5196158886,462176.,-13.8550243378
462196.,-1.000538826,462196.,0.0439159088,462196.,-17.5604343414
462216.,-1.307890296,462216.,0.2887247503,462216.,-20.9640483856
462236.,-1.8368737698,462236.,0.1225856915,462236.,-24.2725524902
462256.,-1.8551579714,462256.,0.1502323896,462256.,-27.1242027283
462276.,-2.1521430016,462276.,0.7721500397,462276.,-29.6491832733
462296.,-2.416728735,462296.,0.9856703877,462296.,-32.2209129333
462316.,-2.3755643368,462316.,0.7462676764,462316.,-34.2350463867
462336.,-2.5625395775,462336.,0.7458019257,462336.,-36.3191909790
462356.,-3.1388990879,462356.,0.9276657104,462356.,-37.2767181396
462376.,-3.2790415287,462376.,0.9136555791,462376.,-38.3876571655
462396.,-3.1861543655,462396.,1.2146165371,462396.,-38.8756332397
462416.,-2.9096338749,462416.,0.9014437199,462416.,-39.2429122925
462436.,-3.0676910877,462436.,0.6567220688,462436.,-38.8500442505
462456.,-3.0213625431,462456.,0.7196905613,462456.,-38.5369529724
462476.,-2.9841635227,462476.,0.8926791549,462476.,-37.6040802002
462496.,-2.9264619350,462496.,0.4517045915,462496.,-36.2643470764
462516.,-2.7420678139,462516.,0.6833595634,462516.,-34.5599021912
462536.,-2.6504566669,462536.,0.7542546988,462536.,-32.4150352478
462556.,-2.3134541512,462556.,0.6375320554,462556.,-30.4639186859
462576.,-2.3515133858,462576.,0.6462516785,462576.,-27.7703609467
462596.,-1.7981624603,462596.,0.3309434950,462596.,-24.7995567322
462616.,-1.5868449211,462616.,0.2861787379,462616.,-21.8249664307
462636.,-1.3284962177,462636.,0.3491536081,462636.,-18.5706996918
462656.,-1.2407408953,462656.,0.0699023828,462656.,-14.9095745087
462676.,-0.7214072943,462676.,-0.163969785,462676.,-11.0237617493
462696.,-0.4025391936,462696.,-0.0972970352,462696.,-7.2766551971
462716.,-0.0380380675,462716.,-0.4260412455,462716.,-3.8067452908
462736.,-0.0571334623,462736.,-0.4750138819,462736.,0.2710931003
462756.,0.7810418606,462756.,-0.5563042164,462756.,4.1551356316
462776.,0.8938484788,462776.,-0.5352057815,462776.,8.3753337860
462796.,1.1359418631,462796.,-0.4016604125,462796.,11.6858015060
462816.,1.4173549414,462816.,-0.7132453322,462816.,15.7137231827
462836.,1.4604322910,462836.,-0.5224137306,462836.,19.3803920746
462856.,1.7755811214,462856.,-0.8352589011,462856.,23.0434989929
462876.,1.7816637754,462876.,-0.5743042231,462876.,26.0496196747
462896.,1.977875948,462896.,-0.53372401,462896.,29.2992267609
462916.,2.2976176739,462916.,-0.387098074,462916.,32.2138442993
462936.,2.6327805519,462936.,-0.275829345,462936.,34.5738220215
462956.,2.5405116081,462956.,-0.3794829547,462956.,36.602558136
462976.,2.7095663548,462976.,-0.2015087605,462976.,38.5976219177
462996.,2.5978014469,462996.,-0.2746351361,462996.,40.2206573486
463016.,2.7804479599,463016.,-0.4675243497,463016.,41.4811515808
463036.,2.8160018921,463036.,-0.502963841,463036.,42.2764282227
463056.,2.9436614513,463056.,-0.6437880397,463056.,42.7673339844
463076.,2.8278625011,463076.,-0.5138347149,463076.,42.6605377197
463096.,2.9682199955,463096.,-0.6563848257,463096.,42.4153175354
463116.,2.84365201,463116.,-0.4090775251,463116.,41.8358078003
463136.,2.9054644108,463136.,-0.6073352695,463136.,40.4546318054
463156.,2.7044181824,463156.,-1.0090459585,463156.,39.0598487854
463176.,2.6725900173,463176.,-0.8921225071,463176.,37.07762146
463196.,2.7499089241,463196.,-0.8796396255,463196.,34.9994010925
463216.,2.6243605614,463216.,-1.2670177221,463216.,32.6223754883
463236.,2.6873466969,463236.,-1.077559948,463236.,30.0887622833
463256.,2.4853308201,463256.,-1.0207328796,463256.,26.7797412872
463276.,1.9907946587,463276.,-1.2822973728,463276.,23.6476669312
463296.,2.0074639320,463296.,-1.2620170116,463296.,20.2893409729
463316.,1.936144352,463316.,-1.2969408035,463316.,16.7342700958
463336.,1.7124304771,463336.,-1.5660389662,463336.,12.9979372025
463356.,1.6265279055,463356.,-1.2643717527,463356.,9.0951604843
463376.,1.4974120855,463376.,-1.9425270557,463376.,5.2144904137
463396.,1.2174860239,463396.,-1.6455808878,463396.,1.4105542898
463416.,0.8454270363,463416.,-1.2633268833,463416.,-2.7866418362
463436.,0.4451583028,463436.,-1.6353138685,463436.,-6.3254318237
463456.,0.2516230941,463456.,-1.5080986023,463456.,-10.4049348831
463476.,0.0903185159,463476.,-1.3823162317,463476.,-14.1138830185
463496.,-0.2936992943,463496.,-1.2545785904,463496.,-17.4673099518
463516.,-0.4641776383,463516.,-1.0734819174,463516.,-20.754196167
463536.,-0.6073130965,463536.,-0.7711706161,463536.,-24.1701087952
463556.,-0.975294292,463556.,-0.8460913897,463556.,-27.2283229828
463576.,-1.2062999010,463576.,-0.9574760795,463576.,-29.6062469482
463596.,-1.4770841599,463596.,-0.6090219617,463596.,-31.8354721069
463616.,-1.9154440165,463616.,-0.4327808321,463616.,-33.9655380249
463636.,-1.9875588417,463636.,0.0278603937,463636.,-35.6991119385
463656.,-2.4226856232,463656.,-0.1738505363,463656.,-36.7168731689
463676.,-2.3288547993,463676.,0.0260738656,463676.,-37.9232788086
463696.,-2.3702967167,463696.,-0.1886153817,463696.,-38.6502685547
463716.,-2.3156199455,463716.,-0.0146913882,463716.,-38.6741065979
463736.,-2.6603493690,463736.,0.1948157698,463736.,-38.6222000122
463756.,-2.5709767342,463756.,-0.1055433303,463756.,-37.9758872986
463776.,-2.6365277767,463776.,0.0884137079,463776.,-37.0396537781
463796.,-2.3243610859,463796.,0.308655113,463796.,-35.8250770569
463816.,-2.4023091793,463816.,0.4917262495,463816.,-34.2389945984
463836.,-2.3265302181,463836.,0.1949643493,463836.,-32.3283386230
463856.,-2.1492621899,463856.,0.3636668026,463856.,-29.9265079498
463876.,-1.8947322369,463876.,0.1890732199,463876.,-27.3277320862
463896.,-1.7402102947,463896.,-0.0042879661,463896.,-24.5809383392
463916.,-1.3638858795,463916.,0.0204093736,463916.,-21.4076194763
463936.,-1.1074581146,463936.,0.1753618717,463936.,-18.3616142273
463956.,-0.9289603829,463956.,-0.1519705355,463956.,-14.9798688889
463976.,-0.5816979408,463976.,0.0816426203,463976.,-11.1941776276
463996.,-0.5513973832,463996.,-0.0771157742,463996.,-7.1259465218
464016.,-0.0368060097,464016.,-0.2704317272,464016.,-3.2497651577
464036.,0.0835659951,464036.,-0.2024452686,464036.,0.4575199783
464056.,0.3377320766,464056.,-0.2932383716,464056.,4.6092686653
464076.,0.7806330919,464076.,-0.2961184084,464076.,8.2926454544
464096.,0.9242362976,464096.,-0.2437995523,464096.,11.8000049591
464116.,1.0654292107,464116.,-0.1707262248,464116.,15.7335481644
464136.,1.3578659296,464136.,-0.4809950292,464136.,19.2501049042
464156.,1.6531448364,464156.,-0.3434571028,464156.,22.9389991760
464176.,1.7639789581,464176.,-0.581479311,464176.,26.1877861023
464196.,1.9159291983,464196.,-0.5109756589,464196.,29.1089057922
464216.,2.2944164276,464216.,-0.3955586851,464216.,31.7029819489
464236.,2.2305626869,464236.,-0.4315693378,464236.,34.3895988464
464256.,2.4463269711,464256.,-0.3720674217,464256.,36.4818382263
464276.,2.4008097649,464276.,-0.5374900103,464276.,38.2295722961
464296.,2.7074997425,464296.,-0.2026091218,464296.,39.5796546936
464316.,2.5378625393,464316.,-0.3076733947,464316.,40.8940505981
464336.,2.6784405708,464336.,0.0605129376,464336.,41.7366638184
464356.,2.7481529713,464356.,0.0261133984,464356.,42.2340927124
464376.,2.6168861389,464376.,0.1357601434,464376.,42.0280189514
464396.,2.4808144569,464396.,-0.1068990752,464396.,42.1071166992
464416.,2.4005167484,464416.,0.0098261544,464416.,41.1707839966
464436.,2.4542791843,464436.,0.0147113623,464436.,40.1436653137
464456.,2.3714468479,464456.,-0.2097541839,464456.,38.5217094421
464476.,2.2628052235,464476.,-0.0443690978,464476.,36.7589683533
464496.,1.9743437767,464496.,-0.0321921632,464496.,34.5915527344
464516.,1.9774446487,464516.,-0.0608840436,464516.,32.4634170532
464536.,2.0175735950,464536.,-0.2905591130,464536.,29.6026268005
464556.,1.7394145727,464556.,-0.0092530483,464556.,26.7972640991
464576.,1.5163916349,464576.,-0.0770892575,464576.,23.4735546112
464596.,1.1461094618,464596.,-0.4958758950,464596.,20.5645961761
464616.,1.0405517817,464616.,-0.1180979311,464616.,16.7079067230
464636.,0.7625946999,464636.,0.0343448482,464636.,13.1053800583
464656.,0.8116056919,464656.,-0.1654691994,464656.,9.1909723282
464676.,0.3109633923,464676.,-0.3625779152,464676.,5.2733092308
464696.,0.514954865,464696.,-0.3669217825,464696.,1.3175626993
464716.,0.1141952127,464716.,-0.2148787230,464716.,-2.2468600273
464736.,-0.1927848160,464736.,-0.4096817374,464736.,-6.0987348557
464756.,-0.1139901131,464756.,-0.4708371460,464756.,-10.1395120621
464776.,-0.2394592166,464776.,-0.7046021223,464776.,-13.6641912460
464796.,-0.7711846828,464796.,-0.3371933699,464796.,-17.2188587189
464816.,-0.7994240522,464816.,-0.5924128294,464816.,-20.5448207855
464836.,-1.0790002346,464836.,-0.4969142079,464836.,-23.9857501984
464856.,-1.1559647322,464856.,-0.6181544662,464856.,-26.6444454193
464876.,-1.4517031908,464876.,-0.5989675522,464876.,-29.2806129456
464896.,-1.4592413902,464896.,-0.6284646392,464896.,-31.7988033295
464916.,-1.5298248529,464916.,-0.7212004066,464916.,-33.6382026672
464936.,-1.6602813005,464936.,-1.0428568125,464936.,-34.8947982788
464956.,-1.3727604151,464956.,-0.7286346555,464956.,-36.4484558105
464976.,-1.5863364935,464976.,-0.9095053673,464976.,-37.4651069641
464996.,-1.8470184803,464996.,-0.6460127831,464996.,-38.1020126343
465016.,-1.4687159061,465016.,-0.8513730168,465016.,-38.2662010193
465036.,-1.6417486668,465036.,-0.7851094007,465036.,-37.9641075134
465056.,-1.6526856422,465056.,-0.6981098056,465056.,-37.2012290955
465076.,-1.4867247343,465076.,-0.7026293278,465076.,-36.8183708191
465096.,-1.5987224579,465096.,-0.8260543346,465096.,-35.5426597595
465116.,-1.5835528374,465116.,-0.6899101138,465116.,-33.8306045532
465136.,-1.0078880787,465136.,-0.7089905739,465136.,-32.0188217163
465156.,-1.164064765,465156.,-0.6482656002,465156.,-29.8695259094
465176.,-1.0837175846,465176.,-0.4728602767,465176.,-27.3346538544
465196.,-1.0564323664,465196.,-0.4642328024,465196.,-24.4076423645
465216.,-0.8799068332,465216.,-0.5936150551,465216.,-21.4639854431
465236.,-0.7479153872,465236.,-0.4718628526,465236.,-18.0582122803
465256.,-0.3811444342,465256.,-0.5553802252,465256.,-14.5298595428
465276.,-0.4929672778,465276.,-0.3848740458,465276.,-11.1149368286
465296.,-0.0435473658,465296.,-0.7653333545,465296.,-7.4569497108
465316.,-0.0071474081,465316.,-0.5482789278,465316.,-3.5252387524
465336.,0.1866082698,465336.,-0.6384618878,465336.,0.3803255558
465356.,0.4666720033,465356.,-0.4056718051,465356.,4.4231977463
465376.,0.8640408516,465376.,-0.5443029404,465376.,8.0413122177
465396.,1.0004583597,465396.,-0.4091217816,465396.,12.0672988892
465416.,1.4483705759,465416.,-0.3619868457,465416.,15.3413677216
465436.,1.6136090755,465436.,-0.3265851438,465436.,19.1963024139
465456.,1.7896378040,465456.,-0.4056830704,465456.,22.4906253815
465476.,2.1448094845,465476.,-0.7477504611,465476.,25.5159206390
465496.,2.1602015495,465496.,-0.6962290406,465496.,28.6563510895
465516.,2.4215276241,465516.,-0.7779508233,465516.,31.5751056671
465536.,2.7834320068,465536.,-0.9575083852,465536.,33.8298301697
465556.,2.8076746464,465556.,-0.8552740216,465556.,36.0431404114
465576.,3.0611913204,465576.,-1.0425494909,465576.,37.9382743835
465596.,3.0825004578,465596.,-1.1183079481,465596.,39.0877456665
465616.,3.1828265190,465616.,-1.2861306667,465616.,40.6238365173
465636.,3.3977825642,465636.,-0.9423526525,465636.,40.9521408081
465656.,3.0599684715,465656.,-1.2068036795,465656.,41.7776641846
465676.,3.4300529957,465676.,-1.1278672218,465676.,41.636920929
465696.,3.1367769241,465696.,-1.1076772213,465696.,41.4176826477
465716.,3.2089622021,465716.,-0.8986504674,465716.,40.6406440735
465736.,3.0545089245,465736.,-0.9588711262,465736.,39.5833625793
465756.,3.0530664921,465756.,-0.6338623762,465756.,38.1600265503
465776.,2.7977411747,465776.,-0.4691305757,465776.,36.3635330200
465796.,2.6890397072,465796.,-0.6270336509,465796.,34.3889083862
465816.,2.2555937767,465816.,-0.2404628098,465816.,32.2088890076
465836.,1.8948359489,465836.,-0.2304339856,465836.,29.5667190552
465856.,1.7928359509,465856.,-0.1701236665,465856.,26.4346618652
465876.,1.7169611454,465876.,-0.1881485134,465876.,23.4689254761
465896.,1.2839996815,465896.,0.297895968,465896.,19.8830051422
465916.,0.8448125124,465916.,0.2135982513,465916.,16.4011688232
465936.,0.3025400639,465936.,0.2469849437,465936.,13.1173477173
465956.,0.303827405,465956.,0.4776785076,465956.,8.8045682907
465976.,0.1393679678,465976.,0.4064279497,465976.,5.1528840065
465996.,-0.2382386774,465996.,0.7159946561,465996.,1.5184918642
466016.,-0.761941433,466016.,0.9623955488,466016.,-2.4406304359
466036.,-0.8740062714,466036.,0.9067848325,466036.,-6.1649131775
466056.,-0.9951482415,466056.,1.0950130224,466056.,-9.9678354263
466076.,-1.3703420162,466076.,0.7629272938,466076.,-13.3337593079
466096.,-1.4320476055,466096.,0.5880478621,466096.,-16.938117981
466116.,-1.4594424963,466116.,0.6967088580,466116.,-20.1790657043
466136.,-1.9206186533,466136.,0.9959761500,466136.,-23.0707473755
466156.,-1.8717088699,466156.,0.7389231920,466156.,-26.0482406616
466176.,-1.9463202953,466176.,0.4585082233,466176.,-28.7831039429
466196.,-2.0907161236,466196.,0.5484945178,466196.,-31.1670589447
466216.,-2.2774469852,466216.,0.2485952079,466216.,-33.239818573
466236.,-2.1033422947,466236.,0.1279623806,466236.,-34.5591163635
466256.,-2.1475965977,466256.,0.0394372754,466256.,-36.0311126709
466276.,-2.2412588596,466276.,0.1418183744,466276.,-36.9700927734
466296.,-2.1072881222,466296.,-0.1102342680,466296.,-37.6066474915
466316.,-2.1658072472,466316.,-0.3966631591,466316.,-37.6275672913
466336.,-1.9229207039,466336.,-0.3813102245,466336.,-37.9284858704
466356.,-2.0766057968,466356.,-0.2138150930,466356.,-37.2672767639
466376.,-1.8310039043,466376.,-0.3778904676,466376.,-36.289642334
466396.,-2.0416164398,466396.,-0.2227652669,466396.,-35.0508079529
466416.,-1.6358457804,466416.,-0.6077633500,466416.,-33.4113616943
466436.,-1.467905283,466436.,-0.5447725058,466436.,-31.5294437408
466456.,-1.4939630032,466456.,-0.6976681948,466456.,-29.2994480133
466476.,-1.2263211012,466476.,-0.4737868905,466476.,-26.8012733459
466496.,-1.0605903864,466496.,-0.4756670296,466496.,-23.8638763428
466516.,-0.5468927622,466516.,-0.7986263633,466516.,-20.8405551910
466536.,-0.5322024822,466536.,-0.7145909071,466536.,-17.7883930206
466556.,-0.4144887030,466556.,-0.3346819282,466556.,-14.5816335678
466576.,-0.3347345889,466576.,-0.3800359964,466576.,-10.6439800262
466596.,-0.0096790465,466596.,-0.4367059469,466596.,-7.0480380058
466616.,0.1823396236,466616.,-0.6963918805,466616.,-3.4380092621
466636.,0.5855209231,466636.,-0.417719245,466636.,0.4921724200
466656.,0.5987219810,466656.,-0.6862239242,466656.,4.1914663315
466676.,0.9188568592,466676.,-0.6456109881,466676.,7.9156527519
466696.,0.9467478991,466696.,-0.4342030883,466696.,11.7033319473
466716.,1.6076471806,466716.,-0.6446191669,466716.,15.4417095184
466736.,1.5835796595,466736.,-0.4238864779,466736.,19.0289993286
466756.,2.1495625973,466756.,-0.9872970581,466756.,22.2788829803
466776.,1.8921726942,466776.,-0.7906998992,466776.,25.6275730133
466796.,2.3586797714,466796.,-0.6366355419,466796.,28.3614692688
466816.,2.5804288387,466816.,-0.8094155192,466816.,30.9121189117
466836.,2.9126534462,466836.,-0.8559277058,466836.,33.3592147827
466856.,3.0520999432,466856.,-1.0147733688,466856.,35.7292709351
466876.,3.2039546967,466876.,-1.3258357048,466876.,37.4131202698
466896.,3.3578431606,466896.,-1.5006052256,466896.,38.6417808533
466916.,3.4483387470,466916.,-1.3074991703,466916.,40.1132926941
466936.,3.4843959808,466936.,-1.4399371147,466936.,40.7527847290
466956.,3.3997020721,466956.,-1.4460766315,466956.,41.1954116821
466976.,3.6013052464,466976.,-1.5731344223,466976.,41.1807556152
466996.,3.5531344414,466996.,-1.7142949104,466996.,40.7692642212
467016.,3.5689020157,467016.,-1.7445408106,467016.,39.9899978638
467036.,3.5682411194,467036.,-1.7221220732,467036.,39.0376701355
467056.,3.2528548241,467056.,-1.7330764532,467056.,37.6516952515
467076.,3.2069804668,467076.,-1.6340235472,467076.,36.0637741089
467096.,3.1140611172,467096.,-1.7020684481,467096.,34.1148796082
467116.,2.8435657024,467116.,-1.1293181181,467116.,31.5898971558
467136.,2.9747412205,467136.,-1.4426209927,467136.,28.9635257721
467156.,2.5573387146,467156.,-1.2398638725,467156.,26.3991203308
467176.,2.1923806667,467176.,-1.1008623838,467176.,23.0398731232
467196.,1.9292492867,467196.,-1.0261421204,467196.,19.8414249420
467216.,1.5751456022,467216.,-0.5364578962,467216.,16.1734867096
467236.,1.261256218,467236.,-0.7596536279,467236.,12.7447185516
467256.,1.0317897797,467256.,-0.6303552985,467256.,8.8926820755
467276.,0.4408177137,467276.,-0.2439537495,467276.,5.2474861145
467296.,0.4187881947,467296.,-0.0530975536,467296.,1.4051352739
467316.,0.1558784842,467316.,-0.3673786819,467316.,-2.4403173923
467336.,-0.3666081727,467336.,-0.0448449962,467336.,-6.1030678749
467356.,-0.4312355518,467356.,0.3501214981,467356.,-9.691485405
467376.,-0.9922800660,467376.,0.1916981041,467376.,-13.3708286285
467396.,-1.4838010073,467396.,0.3629412055,467396.,-16.8656978607
467416.,-1.6106511354,467416.,0.4101549387,467416.,-19.9677429199
467436.,-1.8794579506,467436.,0.6855955124,467436.,-22.8440876007
467456.,-2.0585579872,467456.,0.9349404573,467456.,-25.8827285767
467476.,-2.2848191261,467476.,0.7352558970,467476.,-28.2688446045
467496.,-2.6857810020,467496.,0.8761721253,467496.,-30.6671733856
467516.,-2.4059858322,467516.,0.8031801581,467516.,-32.703994751
467536.,-2.4357635975,467536.,0.7681039572,467536.,-34.4313850403
467556.,-2.6815347672,467556.,0.6833842397,467556.,-35.211101532
467576.,-2.7573666573,467576.,0.9269042015,467576.,-36.3306541443
467596.,-2.8011140823,467596.,0.7258220315,467596.,-37.2470855713
467616.,-2.9000174999,467616.,0.9358400106,467616.,-37.3270988464
467636.,-2.6790800095,467636.,0.5188108087,467636.,-37.0374641418
467656.,-2.9764432907,467656.,0.9171764851,467656.,-36.6214294434
467676.,-2.4161441326,467676.,0.3818788528,467676.,-35.5799293518
467696.,-2.5339426994,467696.,0.2749971747,467696.,-34.5965042114
467716.,-2.4489812851,467716.,0.4449965954,467716.,-33.1583862305
467736.,-2.0952279568,467736.,0.2461003810,467736.,-31.3107128143
467756.,-2.1522538662,467756.,0.3395951092,467756.,-29.0510978699
467776.,-1.7807120085,467776.,-0.0659196600,467776.,-26.6907634735
467796.,-1.5350818634,467796.,-0.3055827916,467796.,-23.5667552948
467816.,-1.3710582256,467816.,-0.2078035027,467816.,-20.7829036713
467836.,-1.0388410091,467836.,-0.2146148682,467836.,-17.5366077423
467856.,-0.8035672903,467856.,-0.4019702673,467856.,-14.1170301437
467876.,-0.5916242003,467876.,-0.3347244859,467876.,-10.6153125763
467896.,-0.5254852176,467896.,-0.2836407423,467896.,-6.9580321312
467916.,-0.2611478865,467916.,-0.4296381474,467916.,-3.5182106495
467936.,0.1520081013,467936.,-0.3900513053,467936.,0.2472161502
467956.,0.3841199577,467956.,-0.1411612332,467956.,4.1465468407
467976.,0.8190674186,467976.,-0.1372732371,467976.,8.0085887909
467996.,0.7105533481,467996.,-0.3145360947,467996.,11.9480285645
468016.,1.0889393091,468016.,-0.4264061451,468016.,15.2559156418
468036.,1.4028174877,468036.,-0.3773547113,468036.,18.5863437653
468056.,1.5766732693,468056.,-0.1578933001,468056.,21.9341773987
468076.,1.7197442055,468076.,-0.5171307325,468076.,25.2117748260
468096.,2.0085813999,468096.,-0.1327853799,468096.,27.9614849091
468116.,2.1032557487,468116.,-0.6817051768,468116.,30.6226539612
468136.,2.1431131363,468136.,-0.2445606887,468136.,33.0451622009
468156.,2.4315114021,468156.,-0.1720888019,468156.,35.1685333252
468176.,2.6706690788,468176.,-0.6207144260,468176.,36.8000297546
468196.,2.5774500370,468196.,-0.6722965837,468196.,38.1564369202
468216.,2.6002418995,468216.,-0.3960997164,468216.,39.4371833801
468236.,2.8646411896,468236.,-0.809032619,468236.,40.187412262
468256.,2.7879877090,468256.,-0.7359322309,468256.,40.6770286560
468276.,2.9211039543,468276.,-0.6402055025,468276.,40.8847618103
468296.,2.7646410465,468296.,-0.9138607979,468296.,40.5741233826
468316.,2.9370534420,468316.,-1.1334661245,468316.,40.0943565369
468336.,3.0550377369,468336.,-0.9737241268,468336.,38.8095970154
468356.,2.9324717522,468356.,-0.967967093,468356.,37.3037605286
468376.,3.0414996147,468376.,-1.1903523207,468376.,35.6431999207
468396.,2.9612457752,468396.,-1.3157476187,468396.,33.5406188965
468416.,2.7673606873,468416.,-1.1669797897,468416.,31.2286586761
468436.,2.4955029488,468436.,-1.3647977114,468436.,28.7869949341
468456.,2.5085268021,468456.,-1.4132201672,468456.,25.6243343353
468476.,2.3756330013,468476.,-1.6521910429,468476.,22.449213028
468496.,2.2274949551,468496.,-1.6680722237,468496.,19.482542038
468516.,2.0439937115,468516.,-1.5539278984,468516.,16.1649150848
468536.,1.8886901140,468536.,-1.4925456047,468536.,12.5429306030
468556.,1.4387047291,468556.,-1.5502792597,468556.,9.042757988
468576.,1.3416734934,468576.,-1.6008542776,468576.,5.2809414864
468596.,1.3511894941,468596.,-1.5823463202,468596.,1.2218483686
468616.,1.0947912931,468616.,-1.5235383511,468616.,-2.3869612217
468636.,0.4698700607,468636.,-1.2919194698,468636.,-6.2471628189
468656.,0.2074914575,468656.,-1.3168181181,468656.,-9.723151207
468676.,-0.0879623964,468676.,-1.2901798487,468676.,-13.0281667709
468696.,-0.2394096553,468696.,-0.9755440950,468696.,-16.4814243317
468716.,-0.6487517357,468716.,-0.8986862898,468716.,-19.5395412445
468736.,-0.8875810504,468736.,-0.6663412452,468736.,-22.9255065918
468756.,-1.3205374479,468756.,-0.6703835726,468756.,-25.504442215
468776.,-1.6383177042,468776.,-0.3267942667,468776.,-28.1530456543
468796.,-1.6639444828,468796.,-0.2986040711,468796.,-30.4124393463
468816.,-2.1263935566,468816.,-0.0166889466,468816.,-32.2714271545
468836.,-2.3638913631,468836.,0.0292377044,468836.,-33.518989563
468856.,-2.4155209064,468856.,0.3717929721,468856.,-35.1129455566
468876.,-2.5024046898,468876.,0.3645731807,468876.,-35.9309921265
468896.,-2.4105763435,468896.,0.2771106362,468896.,-36.7876777649
468916.,-2.9031674862,468916.,0.3767192662,468916.,-36.8946762085
468936.,-2.5338139534,468936.,0.4436240792,468936.,-36.4674644470
468956.,-2.4761660099,468956.,0.3978967369,468956.,-35.9473152161
468976.,-2.5948019028,468976.,0.3982308209,468976.,-35.3037452698
468996.,-2.2528121471,468996.,0.6944215298,468996.,-34.0821037292
469016.,-2.2159204483,469016.,0.5014747977,469016.,-32.6354331970
469036.,-2.2046780586,469036.,0.1017015949,469036.,-30.5843372345
469056.,-1.7773146629,469056.,0.0285777692,469056.,-28.8293209076
469076.,-1.5992437601,469076.,0.2986629605,469076.,-26.2756099701
469096.,-1.5453920364,469096.,-0.1296155304,469096.,-23.5140857697
469116.,-1.2186025381,469116.,-0.1332607269,469116.,-20.3742752075
469136.,-1.0174740553,469136.,-0.1056359708,469136.,-17.469909668
469156.,-0.9129875898,469156.,-0.1741931438,469156.,-14.0919361115
469176.,-0.7111206055,469176.,-0.4117420316,469176.,-10.4886837006
469196.,-0.4728282690,469196.,0.0439513624,469196.,-6.827559948
469216.,0.1111418307,469216.,-0.4466088414,469216.,-3.1342349052
469236.,0.0325073563,469236.,-0.2782435417,469236.,0.4160503447
469256.,0.4362455606,469256.,-0.3826818764,469256.,4.1565794945
469276.,0.8471481204,469276.,-0.4256515205,469276.,7.9812173843
469296.,0.8324965835,469296.,-0.2772400975,469296.,11.5776052475
469316.,1.0653212070,469316.,-0.4338578582,469316.,14.9894275665
469336.,1.5663263798,469336.,-0.2805586457,469336.,18.4252033234
469356.,1.5237766504,469356.,-0.3952294588,469356.,21.8955783844
469376.,1.7874923944,469376.,-0.4235186279,469376.,25.0458946228
469396.,1.7499476671,469396.,-0.1417951435,469396.,27.9200878143
469416.,1.9208339453,469416.,-0.2541143894,469416.,30.6058521271
469436.,2.0288226604,469436.,-0.1282050908,469436.,32.9405326843
469456.,2.1300578117,469456.,-0.3048468530,469456.,34.8597335815
469476.,2.2115461826,469476.,0.0514776371,469476.,36.8686218262
469496.,2.3614201546,469496.,0.0901779234,469496.,38.0959358215
469516.,2.3186814785,469516.,-0.1506931484,469516.,39.3259506226
469536.,2.4643537998,469536.,-0.0994681865,469536.,40.0811767578
469556.,2.4062359333,469556.,0.1166332811,469556.,40.2706642151
469576.,2.3322916031,469576.,-0.0167714525,469576.,40.375202179
469596.,2.4521648884,469596.,0.020711964,469596.,40.1435279846
469616.,2.2558701038,469616.,0.0679939091,469616.,39.4522209167
469636.,2.4891901016,469636.,0.0367411599,469636.,38.1476173401
469656.,2.2071769238,469656.,-0.0900862888,469656.,37.0494041443
469676.,2.1557865143,469676.,-0.1658284217,469676.,35.1790847778
469696.,2.0290575027,469696.,0.1504360586,469696.,33.1692733765
469716.,1.9720664024,469716.,-0.0974131003,469716.,30.9084281921
469736.,1.9082319736,469736.,-0.3352422714,469736.,28.4857368469
469756.,1.8322325945,469756.,-0.4112812877,469756.,25.5320148468
469776.,1.7523026466,469776.,-0.4655323029,469776.,22.5866165161
469796.,1.2764903307,469796.,-0.7091621161,469796.,19.2133560181
469816.,1.2832640409,469816.,-0.4413339198,469816.,15.880355835
469836.,1.3082567453,469836.,-0.6435791850,469836.,12.3814754486
469856.,1.1791043282,469856.,-0.7816404104,469856.,8.7742500305
469876.,0.9659165740,469876.,-0.9363571405,469876.,5.0253758430
