gyro.x_x,gyro.x_y,gyro.y_x,gyro.y_y,gyro.z_x,gyro.z_y
903586.,-36.7722053528,903586.,-0.4331879616,903586.,3.7854285240
903606.,-35.5546684265,903606.,-0.51572752,903606.,3.2602536678
903626.,-34.6360664368,903626.,-0.4696495235,903626.,3.0765829086
903646.,-32.9866523743,903646.,-0.8907902241,903646.,3.1241872311
903666.,-31.3278999329,903666.,-1.4984153509,903666.,2.9778621197
903686.,-29.3700428009,903686.,-1.5059052706,903686.,2.6396842003
903706.,-27.5749740601,903706.,-1.8991137743,903706.,2.5881168842
903726.,-25.2209358215,903726.,-2.3163490295,903726.,2.1029989719
903746.,-22.3710613251,903746.,-2.5803775787,903746.,2.0719251633
903766.,-20.0206584930,903766.,-2.4285819530,903766.,1.964494586
903786.,-16.9010143280,903786.,-2.4988608360,903786.,1.6964958906
903806.,-14.3344268799,903806.,-2.3137316704,903806.,1.2463951111
903826.,-10.5568151474,903826.,-2.1240801811,903826.,1.1766315699
903846.,-7.9981975555,903846.,-1.8477926254,903846.,0.7101849914
903866.,-4.7456207275,903866.,-0.9384347796,903866.,0.5882285237
903886.,-1.9508625269,903886.,-0.7495532632,903886.,-0.2361221015
903906.,1.9731962681,903906.,0.1925794482,903906.,-0.0552063026
903926.,5.5202488899,903926.,0.1442329437,903926.,-0.317271024
903946.,8.2012205124,903946.,0.1808032840,903946.,-0.8591839075
903966.,11.2294502258,903966.,0.2500457168,903966.,-0.6568064094
903986.,14.2073345184,903986.,-0.0487804450,903986.,-1.4328438044
904006.,17.2096214294,904006.,-0.2804154456,904006.,-1.2475842237
904026.,19.9844360352,904026.,-0.3948036432,904026.,-1.7595947981
904046.,22.8034572601,904046.,-0.7992928028,904046.,-1.6924097538
904066.,25.1408443451,904066.,-1.0466475487,904066.,-2.0056400299
904086.,27.5722179413,904086.,-1.2379033566,904086.,-2.1122927666
904106.,29.9342002869,904106.,-1.2081843615,904106.,-2.0699059963
904126.,31.5009346008,904126.,-1.4406622648,904126.,-2.971064806
904146.,33.5453948975,904146.,-1.0460677147,904146.,-3.2503879070
904166.,34.5340118408,904166.,-0.5776541829,904166.,-2.9428067207
904186.,35.8307342529,904186.,-0.4418562949,904186.,-2.8727536201
904206.,37.0658912659,904206.,0.1565310955,904206.,-3.2207224369
904226.,37.5658874512,904226.,0.3621777594,904226.,-3.1066904068
904246.,38.4818534851,904246.,1.2293015718,904246.,-3.1047391891
904266.,37.6542739868,904266.,0.7958692908,904266.,-3.0339174271
904286.,37.4189453125,904286.,1.2839970589,904286.,-3.4065837860
904306.,37.6566543579,904306.,1.7283847332,904306.,-3.1733100414
904326.,36.8402748108,904326.,1.4510723352,904326.,-3.1758549213
904346.,35.9850311279,904346.,1.5494012833,904346.,-3.2351441383
904366.,35.5840797424,904366.,1.2399195433,904366.,-2.6906368732
904386.,33.2558670044,904386.,0.7725684047,904386.,-2.7724821568
904406.,31.8327407837,904406.,0.4844283164,904406.,-2.4911618233
904426.,29.6004505157,904426.,0.2975136936,904426.,-2.5068905354
904446.,27.5084781647,904446.,0.1728317887,904446.,-2.1429452896
904466.,25.5296325684,904466.,0.1655774117,904466.,-2.2693583965
904486.,22.6951713562,904486.,0.3967141509,904486.,-1.7712951899
904506.,20.3113803864,904506.,0.4722574055,904506.,-1.7560530901
904526.,17.4716625214,904526.,0.6048925519,904526.,-1.9481279850
904546.,14.3862342834,904546.,1.1212999821,904546.,-1.0778204203
904566.,11.3031253815,904566.,1.5635601282,904566.,-0.8550547361
904586.,8.2176609039,904586.,1.6297366619,904586.,-0.7853449583
904606.,4.9049491882,904606.,1.9365438223,904606.,-0.3870209754
904626.,1.6671853065,904626.,2.2177288532,904626.,-0.1178528816
904646.,-1.5046198368,904646.,2.6970191002,904646.,0.2785810530
904666.,-4.6693449020,904666.,2.4775035381,904666.,0.6150228381
904686.,-7.7091302872,904686.,2.2839953899,904686.,1.0877478123
904706.,-10.7033882141,904706.,2.2423622608,904706.,0.8484998941
904726.,-13.9202623367,904726.,1.4589389563,904726.,1.4754736423
904746.,-16.7092018127,904746.,0.9746439457,904746.,1.5883163214
904766.,-19.5759220123,904766.,0.6578173637,904766.,1.8189557791
904786.,-22.2059745789,904786.,0.6813654304,904786.,2.0551426411
904806.,-24.6864509583,904806.,0.2013379335,904806.,2.4505813122
904826.,-27.045539856,904826.,-0.1017049253,904826.,2.4379892349
904846.,-28.8761768341,904846.,-0.1817788631,904846.,2.9830727577
904866.,-31.0781288147,904866.,0.1568881869,904866.,2.8442831039
904886.,-32.4741592407,904886.,0.2232901752,904886.,3.0585784912
904906.,-34.0972671509,904906.,0.3966012597,904906.,3.3700358868
904926.,-35.2213439941,904926.,0.9193620682,904926.,3.3956079483
904946.,-36.12840271,904946.,0.7074670792,904946.,3.2625088692
904966.,-36.6545257568,904966.,1.1507422924,904966.,3.7821321487
904986.,-37.1723175049,904986.,0.9385299683,904986.,3.7783417702
905006.,-37.2092514038,905006.,1.2308347225,905006.,3.6553068161
905026.,-37.175151825,905026.,0.6528972983,905026.,3.5983016491
905046.,-36.9522895813,905046.,0.7049462199,905046.,3.6588797569
905066.,-35.937084198,905066.,0.0550245345,905066.,3.4608383179
905086.,-35.2977066040,905086.,-0.0804090202,905086.,3.3955712318
905106.,-33.8518371582,905106.,-0.7267138362,905106.,3.2100291252
905126.,-32.5697975159,905126.,-0.6099206209,905126.,2.9620738029
905146.,-30.6373138428,905146.,-1.1517851353,905146.,2.979293108
905166.,-28.7803783417,905166.,-1.4983905554,905166.,2.7127461433
905186.,-26.5273876190,905186.,-1.5235774517,905186.,2.8443081379
905206.,-24.3144931793,905206.,-1.5822261572,905206.,2.3810365200
905226.,-21.7409992218,905226.,-1.6265817881,905226.,2.1020045280
905246.,-19.0863990784,905246.,-1.3384618759,905246.,1.7237292528
905266.,-16.3470211029,905266.,-0.9862822890,905266.,1.6071633101
905286.,-13.5119733810,905286.,-0.9260428548,905286.,1.4056702852
905306.,-10.5140914917,905306.,-0.7739418149,905306.,1.1849969625
905326.,-7.3264713287,905326.,-0.0858202949,905326.,0.8749729991
905346.,-4.1371617317,905346.,-0.206956625,905346.,0.3988565207
905366.,-0.9557173848,905366.,-0.3044466972,905366.,0.0865063965
905386.,2.4412884712,905386.,-0.0178450812,905386.,-0.1714526415
905406.,5.3794355392,905406.,-0.3892929554,905406.,-0.4695873559
905426.,8.4012184143,905426.,-0.5094529986,905426.,-0.6853640079
905446.,11.2464170456,905446.,-1.1743315458,905446.,-0.858674109
905466.,14.3820037842,905466.,-1.3146065474,905466.,-1.3219338655
905486.,17.5028362274,905486.,-1.6436185837,905486.,-1.6248756647
905506.,19.8551197052,905506.,-1.9094849825,905506.,-1.7825913429
905526.,22.6604957581,905526.,-1.7537368536,905526.,-2.2181346416
905546.,25.0665893555,905546.,-2.0349247456,905546.,-2.1701185703
905566.,27.4122943878,905566.,-1.6695706844,905566.,-2.3525414467
905586.,29.5055847168,905586.,-1.4279415607,905586.,-2.7239041328
905606.,31.5106086731,905606.,-1.4448305368,905606.,-2.819529295
905626.,33.0937309265,905626.,-0.6493959427,905626.,-2.904545784
905646.,34.5291976929,905646.,-0.5920755863,905646.,-3.2424809933
905666.,35.5947036743,905666.,-0.2896067202,905666.,-3.2981495857
905686.,36.4675598145,905686.,-0.1241775602,905686.,-3.2520418167
905706.,37.0265426636,905706.,-0.2958091497,905706.,-3.0600810051
905726.,37.4374160767,905726.,-0.1180759221,905726.,-3.2243492603
905746.,37.6964569092,905746.,-0.0086464658,905746.,-2.9239974022
905766.,37.5142669678,905766.,-0.2638064325,905766.,-3.1490418911
905786.,37.0041618347,905786.,-0.5005761981,905786.,-2.9863128662
905806.,36.1988563538,905806.,-0.7468984127,905806.,-2.9122948647
905826.,35.2544822693,905826.,-0.8557676673,905826.,-2.9829683304
905846.,34.0006217957,905846.,-1.1911520958,905846.,-2.9179613590
905866.,32.6183586121,905866.,-1.2754454613,905866.,-2.8056211472
905886.,30.8223495483,905886.,-1.2378752232,905886.,-2.5349187851
905906.,29.1534900665,905906.,-1.1118173599,905906.,-2.3853187561
905926.,26.9254455566,905926.,-0.9078809619,905926.,-2.0300078392
905946.,24.5210762024,905946.,-0.7702235579,905946.,-2.0266039371
905966.,22.0743579865,905966.,-0.4148807526,905966.,-1.7844327688
905986.,19.3274898529,905986.,0.2890161276,905986.,-1.3347852230
906006.,16.6838207245,906006.,0.5285552144,906006.,-1.1470229626
906026.,13.7286787033,906026.,0.8192896843,906026.,-1.1076462269
906046.,10.7398719788,906046.,0.7671549320,906046.,-0.8803751469
906066.,7.6293120384,906066.,0.9135424495,906066.,-0.3668145835
906086.,4.4258265495,906086.,1.3473733664,906086.,-0.0684321672
906106.,1.4572435617,906106.,1.0237329006,906106.,0.3445838988
906126.,-1.8113533258,906126.,0.9008882046,906126.,0.507614851
906146.,-4.8510303497,906146.,0.4471420348,906146.,0.5886141658
906166.,-7.9666666985,906166.,0.7195150256,906166.,1.2278528214
906186.,-11.082321167,906186.,0.2320823520,906186.,1.2267184258
906206.,-13.7657136917,906206.,0.2651347518,906206.,1.5211516619
906226.,-17.0346012115,906226.,0.2938442230,906226.,1.6603491306
906246.,-19.6596279144,906246.,0.3297319710,906246.,2.0825345516
906266.,-22.1055564880,906266.,0.551019907,906266.,2.2864713669
906286.,-24.6343765259,906286.,0.6549748778,906286.,2.3740890026
906306.,-26.8744544983,906306.,1.0970814228,906306.,2.6412854195
906326.,-28.8454818726,906326.,1.236887455,906326.,2.9299507141
906346.,-30.7711353302,906346.,1.6347544193,906346.,3.1303863525
906366.,-32.1893424988,906366.,1.6789596081,906366.,3.3157474995
906386.,-33.6907539368,906386.,1.9010747671,906386.,3.3220751286
906406.,-34.6476211548,906406.,1.8711768389,906406.,3.3931956291
906426.,-35.669002533,906426.,2.1651415825,906426.,3.4592809677
906446.,-36.3113670349,906446.,1.7825210094,906446.,3.6368670464
906466.,-36.6741676331,906466.,2.021116972,906466.,3.641658783
906486.,-36.5859375,906486.,1.5196459293,906486.,3.6790797710
906506.,-36.5977210999,906506.,1.1287825108,906506.,3.6992144585
906526.,-36.1480712891,906526.,0.8154875636,906526.,3.7038648129
906546.,-35.4070281982,906546.,0.1526485533,906546.,3.7122206688
906566.,-34.2384796143,906566.,0.3385308683,906566.,3.528179884
906586.,-33.0314025879,906586.,0.1306058615,906586.,3.4837017059
906606.,-31.4592494965,906606.,0.3235562742,906606.,3.1693685055
906626.,-29.6512737274,906626.,-0.0787671581,906626.,3.2600839138
906646.,-27.9603424072,906646.,0.2039411813,906646.,3.2553949356
906666.,-25.8911571503,906666.,0.9147648215,906666.,2.6483516693
906686.,-23.6186008453,906686.,0.5863157511,906686.,2.6948924065
906706.,-21.0457286835,906706.,0.8486343622,906706.,2.3997054100
906726.,-18.4875984192,906726.,1.0603176355,906726.,2.1578834057
906746.,-15.5491724014,906746.,1.1052750349,906746.,1.7495473623
906766.,-12.8635034561,906766.,1.2098668814,906766.,1.4677367210
906786.,-9.7764616013,906786.,1.1376399994,906786.,1.3997322321
906806.,-6.8643727303,906806.,1.0611515045,906806.,0.8926767111
906826.,-3.4567883015,906826.,0.9411974549,906826.,0.6746921539
906846.,-0.7293185592,906846.,0.2052014321,906846.,0.2891131938
906866.,2.288030386,906866.,0.1620085835,906866.,0.3573543131
906886.,5.678668499,906886.,-0.1774953157,906886.,-0.2111847848
906906.,8.8226652145,906906.,-0.3812234104,906906.,-0.6837781072
906926.,11.7456264496,906926.,-0.7379657030,906926.,-0.6943047047
906946.,14.7661256790,906946.,-0.6249065995,906946.,-1.2024117708
906966.,17.5372543335,906966.,-0.7227293849,906966.,-1.5253447294
906986.,20.173204422,906986.,-0.7892451286,906986.,-1.5927770138
907006.,22.7398376465,907006.,-0.7125481963,907006.,-2.1018204689
907026.,24.6989116669,907026.,-0.3581486046,907026.,-2.3226559162
907046.,27.5273208618,907046.,-0.3928826153,907046.,-2.2194361687
907066.,29.2419910431,907066.,0.1553240269,907066.,-2.7266440392
907086.,31.3439350128,907086.,0.2377750427,907086.,-2.7342641354
907106.,33.2354660034,907106.,0.1557739973,907106.,-3.0185687542
907126.,34.2359657288,907126.,0.0884887651,907126.,-2.6500086784
907146.,34.9855880737,907146.,-0.1378976256,907146.,-3.0382668972
907166.,35.8643302917,907166.,-0.1863500625,907166.,-3.2407803535
907186.,36.6321868896,907186.,-0.6746574044,907186.,-2.9105465412
907206.,36.8746833801,907206.,-0.8826048374,907206.,-3.3477339745
907226.,37.1367149353,907226.,-1.1812068224,907226.,-3.2150330544
907246.,36.6653366089,907246.,-1.0470992327,907246.,-2.8519699574
907266.,36.156036377,907266.,-1.3865940571,907266.,-2.9976122379
907286.,35.4917144775,907286.,-1.6629379988,907286.,-2.9902191162
907306.,34.8556861877,907306.,-1.9674966335,907306.,-3.059235096
907326.,33.5379180908,907326.,-1.6942017078,907326.,-2.6436364651
907346.,31.7884292603,907346.,-1.9462294579,907346.,-2.6597101688
907366.,30.2599201202,907366.,-1.773671031,907366.,-2.4469075203
907386.,28.4971332550,907386.,-1.2803080082,907386.,-2.2404539585
907406.,26.0522632599,907406.,-1.1618053913,907406.,-2.0464015007
907426.,24.7821769714,907426.,-0.5691087842,907426.,-1.9568190575
907446.,21.9267616272,907446.,-0.5939711332,907446.,-1.3677127361
907466.,17.991350174,907466.,-0.5401071906,907466.,-1.3890610933
907486.,14.8266353607,907486.,-0.8502752781,907486.,-0.9726579189
907506.,12.3334627151,907506.,-0.7667698860,907506.,-0.8982092738
907526.,10.4869136810,907526.,-0.2982554436,907526.,-0.4987459481
907546.,7.1011261940,907546.,-0.8886190653,907546.,-0.2313815206
907566.,3.6196613312,907566.,-0.5722692013,907566.,-0.0810503736
907586.,1.0890640020,907586.,-0.6593288779,907586.,0.1353542358
907606.,-2.2393288612,907606.,-1.0392593145,907606.,0.7033377886
907626.,-5.1703376770,907626.,-1.2055264711,907626.,0.8180569410
907646.,-8.4297065735,907646.,-1.3664622307,907646.,1.1534225941
907666.,-11.2595796585,907666.,-1.1715911627,907666.,1.3693504333
907686.,-14.0384712219,907686.,-1.1921889782,907686.,1.8528500795
907706.,-16.9688682556,907706.,-0.6661432981,907706.,1.9801059961
907726.,-19.7074356079,907726.,-0.5945639610,907726.,2.1903135777
907746.,-22.4609947205,907746.,-0.4919102192,907746.,2.5062680244
907766.,-24.5356388092,907766.,0.1154731885,907766.,2.5083248615
907786.,-26.4754238129,907786.,0.3451811373,907786.,2.6787810326
907806.,-28.6456775665,907806.,0.2306143939,907806.,3.0839169025
907826.,-30.5020103455,907826.,0.3482812643,907826.,2.9821400642
907846.,-31.9409255981,907846.,0.9374604821,907846.,3.1109261513
907866.,-33.4195709229,907866.,0.8497707844,907866.,3.4625611305
907886.,-34.2765045166,907886.,0.7247251868,907886.,3.5894935131
907906.,-35.1399002075,907906.,0.8640286326,907906.,3.6648921967
907926.,-35.8589172363,907926.,0.3410411477,907926.,3.3784825802
907946.,-35.9352455139,907946.,0.4538086355,907946.,3.2869417667
907966.,-36.1442298889,907966.,0.4450282753,907966.,3.7399227619
907986.,-35.8355827332,907986.,0.3452573717,907986.,3.9051902294
908006.,-35.5985374451,908006.,0.2395652682,908006.,3.4318280220
908026.,-34.6513175964,908026.,0.4905565381,908026.,3.6359272003
908046.,-33.6166534424,908046.,0.291649282,908046.,3.5858471394
908066.,-32.454284668,908066.,0.7950547934,908066.,3.3608496189
908086.,-30.9644718170,908086.,0.7018556595,908086.,3.3252017498
908106.,-29.0454864502,908106.,0.9562112689,908106.,2.9473152161
908126.,-27.0842952728,908126.,1.2091978788,908126.,2.9411072731
908146.,-25.0679512024,908146.,1.6715482473,908146.,2.6063592434
908166.,-22.7125415802,908166.,1.7230576277,908166.,2.62677598
908186.,-20.3523902893,908186.,1.4940114021,908186.,2.2633194923
908206.,-17.572095871,908206.,1.8570238352,908206.,2.0914673805
908226.,-15.0144042969,908226.,1.5414506197,908226.,1.7603460550
908246.,-12.1071796417,908246.,1.3139468431,908246.,1.709592104
908266.,-9.1132221222,908266.,1.5965509415,908266.,1.2447559834
908286.,-6.2455778122,908286.,1.1955951452,908286.,0.8670362234
908306.,-3.0470161438,908306.,0.5434342623,908306.,0.7130408287
908326.,-0.0061878012,908326.,0.6953131557,908326.,0.6329749227
908346.,3.1710422039,908346.,0.6968978643,908346.,0.1914651543
908366.,6.0518817902,908366.,0.6646633744,908366.,0.065777652
908386.,9.1012182236,908386.,0.5466669202,908386.,-0.4225860834
908406.,12.0171298981,908406.,0.6054397821,908406.,-0.6785889864
908426.,14.8434829712,908426.,0.6175029278,908426.,-0.8883233070
908446.,17.6553230286,908446.,1.1214008331,908446.,-1.086696744
908466.,20.3451309204,908466.,1.3774300814,908466.,-1.6576926708
908486.,22.7014274597,908486.,1.2968386412,908486.,-1.6928393841
908506.,25.2039775848,908506.,1.6155149937,908506.,-2.0384035110
908526.,27.3118591309,908526.,1.5201913118,908526.,-2.1843371391
908546.,29.1869659424,908546.,1.5984485149,908546.,-2.3839156628
908566.,31.0414142609,908566.,1.3680253029,908566.,-2.2005596161
908586.,32.5224914551,908586.,1.2808207273,908586.,-2.532699585
908606.,33.7416152954,908606.,0.8780695796,908606.,-2.9497160912
908626.,34.7041778564,908626.,0.8242474198,908626.,-2.9538526535
908646.,35.6731796265,908646.,0.2305096686,908646.,-3.0334162712
908666.,36.1736412048,908666.,0.0427387170,908666.,-2.8138244152
908686.,36.3514251709,908686.,-0.1805579215,908686.,-2.9395821095
908706.,36.4559669495,908706.,-0.3107600510,908706.,-3.0376267433
908726.,36.1889038086,908726.,-0.2938702703,908726.,-3.1824085712
908746.,35.6952095032,908746.,-0.2794120908,908746.,-2.9886162281
908766.,34.8187828064,908766.,-0.3042415977,908766.,-3.0838644505
908786.,33.6114273071,908786.,-0.4038061798,908786.,-3.1548855305
908806.,32.5723457336,908806.,-0.2184479535,908806.,-2.667424202
908826.,30.9992351532,908826.,-0.0989408344,908826.,-2.5545594692
908846.,29.5548210144,908846.,-0.1725561321,908846.,-2.4610540867
908866.,27.4411792755,908866.,-0.0680630356,908866.,-2.0582985878
908886.,25.3817138672,908886.,-0.1194553301,908886.,-2.0713686943
908906.,23.1458930969,908906.,-0.2720266581,908906.,-1.7731729746
908926.,20.6757984161,908926.,-0.2860974073,908926.,-1.394882679
908946.,17.7889499664,908946.,-0.6987218261,908946.,-1.2483270168
908966.,15.2971401215,908966.,-0.7499434352,908966.,-0.8405485749
908986.,12.4804077148,908986.,-1.0979385376,908986.,-0.7150743008
909006.,9.6346826553,909006.,-1.7267229557,909006.,-0.4925835133
909026.,6.4090461731,909026.,-1.6364880800,909026.,-0.1200416386
909046.,3.3780405521,909046.,-1.9073044062,909046.,-0.0638838187
909066.,0.2188187391,909066.,-1.9013675451,909066.,0.2783797681
909086.,-2.7367680073,909086.,-1.7608402967,909086.,0.8321223855
909106.,-5.6667046547,909106.,-2.2031869888,909106.,0.9633960724
909126.,-8.8267240524,909126.,-1.7793495655,909126.,1.1157972813
909146.,-11.5666875839,909146.,-1.550357461,909146.,1.6448700428
909166.,-14.5568342209,909166.,-1.4798300266,909166.,1.5465745926
909186.,-16.9320411682,909186.,-1.1542658806,909186.,2.0681884289
909206.,-19.5240383148,909206.,-1.1965761185,909206.,2.2031748295
909226.,-22.0403060913,909226.,-1.0203387737,909226.,2.3706669807
909246.,-24.623374939,909246.,-0.8756090999,909246.,2.6683001518
909266.,-26.5431423187,909266.,-0.9457908869,909266.,2.8659229279
909286.,-28.574924469,909286.,-1.0119360685,909286.,2.8243257999
909306.,-30.2180614471,909306.,-1.0400612354,909306.,2.8376326561
909326.,-31.6781177521,909326.,-0.9059197903,909326.,3.2153320312
909346.,-32.9835472107,909346.,-1.1748206615,909346.,3.3365197182
909366.,-34.0449752808,909366.,-1.4093741179,909366.,3.3063890934
909386.,-34.6715316772,909386.,-1.2938866615,909386.,3.5214998722
909406.,-35.1690940857,909406.,-1.4720650911,909406.,3.6044437885
909426.,-35.4287757874,909426.,-1.3896913528,909426.,3.4583132267
909446.,-35.5049591064,909446.,-1.3971915245,909446.,3.553075552
909466.,-35.299987793,909466.,-0.8233927488,909466.,3.4628083706
909486.,-34.4795265198,909486.,-0.7815691829,909486.,3.4161677361
909506.,-34.0215377808,909506.,-0.5746421218,909506.,3.4165363312
909526.,-32.9358406067,909526.,-0.1852061599,909526.,3.3921072483
909546.,-31.6838054657,909546.,-0.0134270135,909546.,3.2137770653
909566.,-30.2133579254,909566.,0.1040788144,909566.,2.9848134518
909586.,-28.5140037537,909586.,0.4455842972,909586.,2.9879832268
909606.,-26.2043380737,909606.,0.5817135572,909606.,2.5240986347
909626.,-24.2434558868,909626.,0.7330406904,909626.,2.5751914978
909646.,-22.1645450592,909646.,0.5136944652,909646.,2.4234442711
909666.,-19.5486507416,909666.,0.6005957127,909666.,2.0646233559
909686.,-17.0377960205,909686.,0.5431659222,909686.,2.0479383469
909706.,-14.6754369736,909706.,0.3416741192,909706.,1.8274936676
909726.,-11.4637823105,909726.,0.2710005939,909726.,1.2993086576
909746.,-8.6114120483,909746.,0.02562478,909746.,1.2392277718
909766.,-5.6342206001,909766.,0.0887096301,909766.,0.8916262984
909786.,-2.6490683556,909786.,0.0896615461,909786.,0.5594815016
909806.,0.6265355945,909806.,0.7611190081,909806.,0.3095617294
909826.,3.4153151512,909826.,0.8786677718,909826.,0.2488018572
909846.,6.3437628746,909846.,0.9106169939,909846.,-0.1630797386
909866.,9.2619638443,909866.,1.3181778193,909866.,-0.2608668804
909886.,12.0476684570,909886.,1.4657870531,909886.,-0.6183028817
909906.,15.0866050720,909906.,1.5311709642,909906.,-0.8266830444
909926.,17.873210907,909926.,1.7243947983,909926.,-1.3952175379
909946.,20.2823200226,909946.,1.7263208628,909946.,-1.1550735235
909966.,22.9315109253,909966.,1.7584213018,909966.,-1.6507204771
909986.,25.0280094147,909986.,2.0120897293,909986.,-1.8066505194
910006.,27.0707798004,910006.,1.8204095364,910006.,-1.9047691822
910026.,28.9752330780,910026.,1.6118932962,910026.,-2.3348453045
910046.,30.8803596497,910046.,1.4084858894,910046.,-2.4274334908
910066.,32.4094123840,910066.,1.4502214193,910066.,-2.6096572876
910086.,33.5298652649,910086.,1.2413716316,910086.,-2.695101738
910106.,34.4239120483,910106.,0.8180215955,910106.,-2.6739675999
910126.,35.3393325806,910126.,0.9080025554,910126.,-2.7703108788
910146.,35.5223464966,910146.,1.1623688936,910146.,-3.1214995384
910166.,35.9204483032,910166.,1.1163612604,910166.,-2.9007184505
910186.,35.9247894287,910186.,1.1527822018,910186.,-2.8466277122
910206.,35.3636283875,910206.,1.2709118128,910206.,-2.8910298347
910226.,34.9945297241,910226.,1.5955412388,910226.,-2.7827899456
910246.,34.2442092896,910246.,1.2960705757,910246.,-3.1599428654
910266.,32.8636894226,910266.,1.4729232788,910266.,-2.8123300076
910286.,31.6940345764,910286.,1.7894357443,910286.,-2.7261145115
910306.,30.6148433685,910306.,1.3627561331,910306.,-2.3134787083
910326.,28.5799255371,910326.,1.3865355253,910326.,-2.5001709461
910346.,26.5949668884,910346.,1.0326211452,910346.,-2.3071441650
910366.,24.3777542114,910366.,1.0505776405,910366.,-1.8802626133
910386.,22.0438423157,910386.,0.3113905191,910386.,-1.8904362917
910406.,19.5184154510,910406.,1.2374479771,910406.,-1.0836039782
910426.,17.3246612549,910426.,0.190382883,910426.,-1.3361856937
910446.,14.6218099594,910446.,-0.1101542711,910446.,-0.908949554
910466.,11.8180303574,910466.,-0.3908825815,910466.,-0.6780080199
910486.,9.0105619431,910486.,-0.5156050324,910486.,-0.6446022987
910506.,6.258702755,910506.,-0.4425956309,910506.,-0.3088359535
910526.,3.1135189533,910526.,-0.2350710630,910526.,-0.1566982716
910546.,0.0866098478,910546.,-0.5454789996,910546.,0.0743465945
910566.,-3.0042779446,910566.,-0.5008986592,910566.,0.2286084592
910586.,-6.2063827515,910586.,-0.6828770638,910586.,1.0861293077
910606.,-9.0488939285,910606.,-0.3855146468,910606.,1.0999546051
910626.,-11.7907104492,910626.,-0.7767344117,910626.,1.3825833797
910646.,-14.6222791672,910646.,-0.6673135161,910646.,1.7178415060
910666.,-17.8326740265,910666.,-0.9925829172,910666.,1.6294776201
910686.,-19.8070640564,910686.,-1.0430929661,910686.,2.3606202602
910706.,-22.5214023590,910706.,-1.0240380764,910706.,2.1044280529
910726.,-24.3282604218,910726.,-1.2986552715,910726.,2.7350885868
910746.,-27.6688995361,910746.,-1.6870502234,910746.,2.8612010479
910766.,-28.5023708344,910766.,-1.7150608301,910766.,2.8266167641
910786.,-30.4542484283,910786.,-1.7633267641,910786.,3.1629116535
910806.,-31.1691627502,910806.,-2.1188590527,910806.,3.2078175545
910826.,-32.8529205322,910826.,-1.827542305,910826.,3.3580014706
910846.,-33.6463279724,910846.,-2.4028851986,910846.,3.6118698120
910866.,-34.4269943237,910866.,-1.7780646086,910866.,3.380594492
910886.,-34.6897201538,910886.,-1.8482718468,910886.,3.4239442348
910906.,-34.8850402832,910906.,-1.5632683039,910906.,3.3750967979
910926.,-35.1564254761,910926.,-1.4392415285,910926.,3.7241115570
910946.,-34.5967788696,910946.,-1.1840186119,910946.,3.3854229450
910966.,-33.9209403992,910966.,-0.9715874195,910966.,3.0398533344
910986.,-33.6065864563,910986.,-1.0073593855,910986.,3.4913592339
911006.,-32.2085456848,911006.,-1.261354208,911006.,2.9963743687
911026.,-30.9332790375,911026.,-1.1420379877,911026.,2.9222447872
911046.,-29.4608974457,911046.,-0.8858855963,911046.,3.0658466816
911066.,-27.8130664825,911066.,-0.7552713752,911066.,2.5445096493
911086.,-25.7968940735,911086.,-1.0273861885,911086.,2.7023825645
911106.,-23.9530963898,911106.,-0.9144613147,911106.,2.3319573402
911126.,-21.4019680023,911126.,-1.2168730497,911126.,2.2217342854
911146.,-19.1244812012,911146.,-1.1025332212,911146.,1.3637186289
911166.,-16.6303768158,911166.,-1.3613101244,911166.,1.5978381634
911186.,-13.9172239304,911186.,-1.0935021639,911186.,1.6186213493
911206.,-11.0129098892,911206.,-0.8912029862,911206.,1.1583402157
911226.,-8.4208889008,911226.,-1.0619245768,911226.,0.8188788891
911246.,-5.2852993011,911246.,-0.6257209182,911246.,0.70320189
911266.,-2.1036484241,911266.,-0.6897303462,911266.,0.4345404804
911286.,0.7519386411,911286.,-0.3941044509,911286.,0.3976824582
911306.,3.9377353191,911306.,0.0400669612,911306.,-0.1793157905
911326.,6.7518057823,911326.,0.0872179642,911326.,-0.404276073
911346.,9.6376991272,911346.,0.5451297164,911346.,-0.5961720347
911366.,12.5886611938,911366.,0.2804287076,911366.,-1.0418506861
911386.,14.9969053268,911386.,0.4471021593,911386.,-1.1120772362
911406.,17.8099842072,911406.,0.4288109839,911406.,-1.3576937914
911426.,20.505443573,911426.,0.2812826931,911426.,-1.6636368036
911446.,22.8157424927,911446.,0.7587078214,911446.,-1.5906052589
911466.,25.1170063019,911466.,0.4910831451,911466.,-1.9815913439
911486.,26.9739189148,911486.,0.4778653681,911486.,-2.2429263592
911506.,29.0634708405,911506.,0.3236427605,911506.,-2.1325368881
911526.,30.4306678772,911526.,0.3724041581,911526.,-2.3887999058
911546.,31.8125991821,911546.,0.4307119250,911546.,-2.6875622272
911566.,33.1349601746,911566.,0.7185447812,911566.,-2.6980266571
911586.,34.0431938171,911586.,0.6904181838,911586.,-2.6953568459
911606.,34.6724205017,911606.,1.1673716307,911606.,-2.9394688606
911626.,35.2529907227,911626.,1.1367846727,911626.,-3.1621649265
911646.,35.0433731079,911646.,1.4556317329,911646.,-2.6263849735
911666.,35.2510871887,911666.,1.7581053972,911666.,-3.1130449772
911686.,34.8750953674,911686.,1.662498951,911686.,-2.7896294594
911706.,34.4102363586,911706.,1.8434894085,911706.,-3.0550208092
911726.,33.8484573364,911726.,1.8763525486,911726.,-2.7780311108
911746.,32.3026885986,911746.,1.9897918701,911746.,-2.4808168411
911766.,31.2976264954,911766.,2.0175845623,911766.,-2.6959586143
911786.,29.5796337128,911786.,1.781930089,911786.,-2.3890035152
911806.,28.0770778656,911806.,1.7048047781,911806.,-2.2699992657
911826.,26.2535629272,911826.,1.6116526127,911826.,-2.4016206264
911846.,24.103515625,911846.,1.0742784739,911846.,-2.1638464928
911866.,21.8343868256,911866.,1.4406245947,911866.,-2.0435740948
911886.,19.4108772278,911886.,1.2931987047,911886.,-1.6982455254
911906.,16.6689491272,911906.,1.0005893707,911906.,-1.4378865957
911926.,14.0728359222,911926.,0.9387085438,911926.,-1.0532264709
911946.,11.2136697769,911946.,1.333742857,911946.,-0.9433389902
911966.,8.3385686874,911966.,1.2357866764,911966.,-0.6472884417
911986.,5.3086152077,911986.,1.1964048147,911986.,-0.2849504948
912006.,2.4797720909,912006.,1.1966047287,912006.,-0.0082830517
912026.,-0.1393817663,912026.,1.2791074514,912026.,0.2105986923
912046.,-3.4703187943,912046.,1.2652294636,912046.,0.4783473313
912066.,-6.3457164764,912066.,1.241293788,912066.,0.7428210378
912086.,-9.1342906952,912086.,1.1218769550,912086.,0.7906978726
912106.,-12.0719356537,912106.,0.8043348193,912106.,1.3478209972
912126.,-14.6502780914,912126.,0.8613279462,912126.,1.6497528553
912146.,-17.1417579651,912146.,0.3728105724,912146.,1.6844787598
912166.,-19.9611225128,912166.,0.2720080912,912166.,2.1024155617
912186.,-22.0542507172,912186.,-0.1435743421,912186.,2.2791397572
912206.,-24.4879341125,912206.,-0.2817951441,912206.,2.4741919041
912226.,-26.2377033234,912226.,-0.6263533831,912226.,2.7517976761
912246.,-28.1095619202,912246.,-0.6394497752,912246.,2.7203819752
912266.,-29.867389679,912266.,-0.4549747109,912266.,2.8315155506
912286.,-31.1489868164,912286.,-0.8563802242,912286.,3.0442388058
912306.,-32.2968482971,912306.,-0.5513269901,912306.,3.1130986214
912326.,-33.4140167236,912326.,-0.6548209190,912326.,3.2307889462
912346.,-33.9876022339,912346.,-0.6760730743,912346.,3.3943057060
912366.,-34.2714347839,912366.,-0.5807116628,912366.,3.3035283089
912386.,-34.318977356,912386.,-0.4194833636,912386.,3.5406193733
912406.,-34.4803085327,912406.,-0.6328850389,912406.,3.5490820408
912426.,-33.9452514648,912426.,-0.5840619206,912426.,3.4894084930
912446.,-33.7749671936,912446.,-0.6227206588,912446.,3.1714398861
912466.,-32.7485160828,912466.,-0.8504969478,912466.,3.1127130985
912486.,-31.7469444275,912486.,-0.8767140508,912486.,3.0106387138
912506.,-30.2271614075,912506.,-1.3371351957,912506.,3.001282692
912526.,-28.7701683044,912526.,-1.3087742329,912526.,2.7225327492
912546.,-27.1829853058,912546.,-1.5302777290,912546.,2.6878314018
912566.,-25.218870163,912566.,-1.5513956547,912566.,2.541025877
912586.,-23.2354106903,912586.,-1.6642063856,912586.,2.2531673908
912606.,-20.5801277161,912606.,-1.5727944374,912606.,2.1339027882
912626.,-18.5012626648,912626.,-1.5608174801,912626.,1.8300591707
912646.,-15.7024698257,912646.,-1.5902719498,912646.,1.4373265505
912666.,-13.1064300537,912666.,-1.5165653229,912666.,1.0606622696
912686.,-10.1646776199,912686.,-1.2851022482,912686.,0.7572907805
912706.,-7.2472290993,912706.,-1.2396821976,912706.,0.4584743679
912726.,-4.4395828247,912726.,-1.094442606,912726.,0.2846737504
912746.,-1.7273091078,912746.,-0.9883322716,912746.,0.2504729629
912766.,1.3795282841,912766.,-0.8641043901,912766.,0.007471154
912786.,4.0801253319,912786.,-0.6549547315,912786.,-0.2742110491
912806.,7.1378698349,912806.,-0.9211620092,912806.,-0.5417139530
912826.,9.9960994720,912826.,-0.8201617002,912826.,-0.8805597425
912846.,12.7672815323,912846.,-1.0317776203,912846.,-1.0706138611
912866.,15.4627523422,912866.,-1.0404856205,912866.,-1.493501544
912886.,18.1384277344,912886.,-1.1307175159,912886.,-1.7032124996
912906.,20.4002399445,912906.,-1.3023383617,912906.,-1.7016029358
912926.,22.5559368134,912926.,-0.9554610252,912926.,-2.0534408092
912946.,25.0593357086,912946.,-1.0108031034,912946.,-2.2326271534
912966.,26.8983898163,912966.,-0.9929484725,912966.,-2.1343798637
912986.,28.5572032928,912986.,-0.8912574649,912986.,-2.6530077457
913006.,30.1890583038,913006.,-0.8236135244,913006.,-2.8551914692
913026.,31.4041614532,913026.,-0.9016155601,913026.,-2.9746091366
913046.,32.7189483643,913046.,-0.522117734,913046.,-2.8051469326
913066.,33.5980796814,913066.,0.1909892559,913066.,-2.7746572495
913086.,34.3357734680,913086.,0.2261095643,913086.,-2.9165120125
913106.,34.6600074768,913106.,0.2562944293,913106.,-3.0127475262
913126.,34.9751358032,913126.,0.2356919199,913126.,-2.9373307228
913146.,34.5011901855,913146.,0.4350036979,913146.,-3.0067176819
913166.,34.2959594727,913166.,0.3142983317,913166.,-2.8522255421
913186.,33.5723190308,913186.,0.3821381330,913186.,-2.7981438637
913206.,33.0729331970,913206.,0.3255886734,913206.,-2.8166601658
913226.,31.8261947632,913226.,0.1992557347,913226.,-2.6602001190
913246.,30.5373134613,913246.,0.4538558424,913246.,-2.5535752773
913266.,28.7200965881,913266.,0.5347294211,913266.,-2.5505106449
913286.,27.3428058624,913286.,0.4907304049,913286.,-2.0963249207
913306.,25.3965167999,913306.,0.8299511075,913306.,-2.195889473
913326.,23.0225028992,913326.,0.8183326721,913326.,-1.9259029627
913346.,20.9699249268,913346.,0.5109394193,913346.,-1.4863212109
913366.,18.5552120209,913366.,0.900187254,913366.,-1.7412736416
913386.,15.8010997772,913386.,1.4243394136,913386.,-1.0904328823
913406.,13.2588644028,913406.,1.3072471619,913406.,-1.1389881372
913426.,10.8295545578,913426.,1.3536382914,913426.,-0.7141513824
913446.,7.8324508667,913446.,1.3768907785,913446.,-0.5609652400
913466.,4.9012317657,913466.,1.7913397551,913466.,-0.4176493287
913486.,2.0753362179,913486.,1.7002688646,913486.,0.0141548458
913506.,-1.0041519403,913506.,1.6528931856,913506.,0.3197236657
913526.,-3.8894917965,913526.,1.6492727995,913526.,0.4017961323
913546.,-6.7631139755,913546.,1.7604049444,913546.,0.7962536812
913566.,-9.7496500015,913566.,1.4026858807,913566.,0.86020118
913586.,-11.5117149353,913586.,1.5082348585,913586.,1.1127980947
913606.,-15.2587385178,913606.,1.3821630478,913606.,1.5666438341
913626.,-17.0380935669,913626.,0.4093098938,913626.,1.9036561251
913646.,-19.8406562805,913646.,0.7350304127,913646.,1.9011842012
913666.,-22.1876258850,913666.,0.7641955614,913666.,2.0248339176
913686.,-24.2419223785,913686.,0.7504035234,913686.,2.6188752651
913706.,-26.4438476562,913706.,0.8046495318,913706.,2.2100477219
913726.,-27.8280639648,913726.,0.7266070247,913726.,2.9660608768
913746.,-29.2012443542,913746.,0.9906811118,913746.,2.8588190079
913766.,-30.7473754883,913766.,1.0305581093,913766.,3.2468211651
913786.,-31.8515224457,913786.,0.7268261909,913786.,3.1009821892
913806.,-32.7166671753,913806.,0.8970076442,913806.,3.1373198032
913826.,-33.4595336914,913826.,1.0369731188,913826.,3.4295425415
913846.,-33.6335411072,913846.,0.4420889616,913846.,3.1663472652
913866.,-33.6603469849,913866.,0.9545281529,913866.,3.3524603844
913886.,-33.552482605,913886.,0.4438111484,913886.,2.9794518948
913906.,-34.4945716858,913906.,0.5781536102,913906.,3.3453571796
913926.,-32.5123748779,913926.,0.0235110931,913926.,3.3821768761
913946.,-31.7477245331,913946.,0.1576508582,913946.,3.2099013329
913966.,-31.0326976776,913966.,0.0967912525,913966.,3.0285053253
913986.,-29.5449256897,913986.,-0.4372712374,913986.,2.9889190197
914006.,-29.0246543884,914006.,-0.2089931667,914006.,2.7713716030
914026.,-25.7214221954,914026.,-0.3823925257,914026.,2.4887783527
914046.,-24.9567127228,914046.,-0.6500864029,914046.,2.5354940891
914066.,-22.4584884644,914066.,-0.6938014030,914066.,2.2130784988
914086.,-20.0619068146,914086.,-0.4594964683,914086.,2.1286664009
914106.,-17.8690376282,914106.,-0.3215268552,914106.,1.7343807220
914126.,-15.1282043457,914126.,-0.2893481851,914126.,1.4630848169
914146.,-12.2928495407,914146.,-0.0997003168,914146.,1.3669406176
914166.,-9.7809906006,914166.,0.0334947295,914166.,1.369363904
914186.,-6.9831933975,914186.,-0.0285482071,914186.,0.6972611547
914206.,-3.9838809967,914206.,-0.3789837360,914206.,0.5018659234
914226.,-1.1192562580,914226.,-0.3049995899,914226.,0.2872020006
914246.,1.5585168600,914246.,-0.0579551756,914246.,-0.0513999164
914266.,4.6437983513,914266.,-0.3785317540,914266.,-0.3275839984
914286.,7.5185513496,914286.,-0.6488232613,914286.,-0.5247322321
914306.,10.2069387436,914306.,-1.0000538826,914306.,-0.8635074496
914326.,12.9628372192,914326.,-1.0124570131,914326.,-1.0400425196
914346.,15.9167785645,914346.,-1.3022780418,914346.,-1.0223933458
914366.,18.1682910919,914366.,-1.2991311550,914366.,-1.6178879738
914386.,20.4111576080,914386.,-1.3425482512,914386.,-1.6603121758
914406.,22.7060642242,914406.,-1.4243488312,914406.,-2.0179998875
914426.,24.9991512299,914426.,-1.2877172232,914426.,-1.9639325142
914446.,26.8589134216,914446.,-1.2412631512,914446.,-2.3877441883
914466.,28.5556297302,914466.,-1.2796980143,914466.,-2.3008594513
914486.,29.9753894806,914486.,-0.9990404248,914486.,-2.693451643
914506.,31.3863086700,914506.,-1.2468570471,914506.,-2.7028393745
914526.,32.2118492126,914526.,-0.8502025604,914526.,-2.7693428993
914546.,33.3265609741,914546.,-1.0491449833,914546.,-2.8230371475
914566.,33.9408569336,914566.,-0.8434011936,914566.,-2.8970973492
914586.,33.9959602356,914586.,-0.7852723598,914586.,-2.881736517
914606.,34.3630981445,914606.,-1.1349151134,914606.,-2.8874454498
914626.,34.1177406311,914626.,-0.9516643286,914626.,-3.0891833305
914646.,33.6653137207,914646.,-1.3612481356,914646.,-2.8640825748
914666.,33.2263755798,914666.,-0.9463179111,914666.,-2.5203347206
914686.,32.1562767029,914686.,-0.7929960489,914686.,-2.8448214531
914706.,31.2203121185,914706.,-1.3879152536,914706.,-2.5890133381
914726.,29.8065795898,914726.,-1.1232674122,914726.,-2.4233443737
914746.,28.3529815674,914746.,-1.2704743147,914746.,-2.3646562099
914766.,26.5706596375,914766.,-1.1769295931,914766.,-2.0937125683
914786.,24.4839515686,914786.,-0.6614792943,914786.,-1.7192822695
914806.,22.7946662903,914806.,-0.7427399755,914806.,-1.7329176664
914826.,20.2584133148,914826.,-0.5419830084,914826.,-1.6489342451
914846.,17.9068164825,914846.,-0.3770489097,914846.,-1.5784326792
914866.,15.359413147,914866.,-0.1256708503,914866.,-1.0114423037
914886.,12.6866436005,914886.,0.1036169007,914886.,-0.9163740873
914906.,10.1206159592,914906.,0.2265046984,914906.,-0.6481446624
914926.,7.4722824097,914926.,0.4764899909,914926.,-0.6086554527
914946.,4.5499100685,914946.,0.4347985089,914946.,-0.1022340059
914966.,1.6266275644,914966.,0.3769175410,914966.,0.2431160063
914986.,-1.3023204803,914986.,0.2271218002,914986.,0.5401185751
915006.,-4.0652647018,915006.,0.4231166244,915006.,0.6609913111
915026.,-7.0414743423,915026.,0.2684933841,915026.,0.8207592368
915046.,-9.9187850952,915046.,0.1808258444,915046.,1.1156471968
915066.,-12.4774827957,915066.,0.5186345577,915066.,1.277543664
915086.,-15.3010826111,915086.,0.3219965994,915086.,1.6379990578
915106.,-17.5386219025,915106.,0.4590165615,915106.,1.9693040848
915126.,-20.0024585724,915126.,0.5670323968,915126.,2.1862308979
915146.,-22.1796226501,915146.,0.7604921460,915146.,2.3094511032
915166.,-24.212556839,915166.,0.5620583892,915166.,2.6273326874
915186.,-26.0383529663,915186.,1.0247843266,915186.,2.5414643288
915206.,-27.9474468231,915206.,1.1057928801,915206.,2.7525289059
915226.,-29.2407550812,915226.,1.228998065,915226.,2.9344947338
915246.,-30.4852390289,915246.,1.2082337141,915246.,2.9665224552
915266.,-31.5563240051,915266.,1.0200440884,915266.,3.2783794403
915286.,-32.3893814087,915286.,1.1202577353,915286.,3.2261388302
915306.,-32.9019584656,915306.,0.8781282902,915306.,3.1645097733
915326.,-33.3506355286,915326.,0.9711270332,915326.,3.1125845909
915346.,-33.1507644653,915346.,1.0562849045,915346.,3.3753168583
915366.,-33.2278976440,915366.,0.8234118223,915366.,3.4300272465
915386.,-32.7335929871,915386.,0.8376680017,915386.,3.2218170166
915406.,-32.1502418518,915406.,0.8370556831,915406.,3.4427297115
915426.,-31.5454425812,915426.,0.9670146108,915426.,3.1568713188
915446.,-30.2757453918,915446.,0.6621205807,915446.,3.0241231918
915466.,-28.9503574371,915466.,0.5559176803,915466.,3.0499382019
915486.,-27.4104804993,915486.,0.8159624934,915486.,2.8267142773
915506.,-25.6267776489,915506.,0.8761596084,915506.,2.8200335503
915526.,-23.7132549286,915526.,0.9175633788,915526.,2.4174849987
915546.,-21.4339294434,915546.,0.9347494245,915546.,2.2470960617
915566.,-19.2673072815,915566.,1.1694117785,915566.,2.1357507706
915586.,-16.9662418365,915586.,1.0518456697,915586.,1.8557131290
915606.,-14.2088155746,915606.,0.7381864786,915606.,1.6921472549
915626.,-11.8497047424,915626.,0.9215200543,915626.,1.5042665005
915646.,-8.7435226440,915646.,1.0936712027,915646.,1.1675084829
915666.,-6.1949272156,915666.,0.7181726098,915666.,1.13337183
915686.,-3.4755048752,915686.,0.8882328272,915686.,0.6859261394
915706.,-0.5492143035,915706.,0.6063194275,915706.,0.4588789344
915726.,2.2881774902,915726.,0.7858610153,915726.,0.0334830396
915746.,5.2858300209,915746.,0.1644891053,915746.,-0.2861400843
915766.,7.9945869446,915766.,0.5314881206,915766.,-0.5028362870
915786.,10.7006540298,915786.,0.0689963177,915786.,-0.7498835921
915806.,13.144323349,915806.,0.4211729765,915806.,-0.9027850032
915826.,15.7854862213,915826.,0.2608128786,915826.,-1.2245976925
915846.,18.4322338104,915846.,0.1588803828,915846.,-1.5008645058
915866.,20.5299015045,915866.,-0.0489653870,915866.,-1.6948535442
915886.,22.6284446716,915886.,0.2316805720,915886.,-1.8035492897
915906.,24.7573490143,915906.,0.1052215174,915906.,-1.9174257517
915926.,26.6244449615,915926.,-0.0735748932,915926.,-1.8411495686
915946.,28.3973426819,915946.,0.1324602515,915946.,-2.4799101353
915966.,29.6209754944,915966.,0.0898980647,915966.,-2.452116251
915986.,30.9953460693,915986.,-0.3420264721,915986.,-2.4880182743
916006.,32.1749267578,916006.,-0.1294102073,916006.,-2.5799102783
916026.,32.9628486633,916026.,-0.3599871397,916026.,-2.6983146667
916046.,33.2675056458,916046.,-0.4608072937,916046.,-2.6877245903
916066.,33.6603431702,916066.,-0.7214928269,916066.,-2.7074465752
916086.,33.6505737305,916086.,-1.1226562262,916086.,-2.8583371639
916106.,33.5809440613,916106.,-1.0429646969,916106.,-2.8366763592
916126.,33.1704063416,916126.,-1.148493886,916126.,-2.6374118328
916146.,32.6754951477,916146.,-1.0990290642,916146.,-2.7427804470
916166.,31.7636337280,916166.,-1.6060329676,916166.,-2.6786122322
916186.,30.3950061798,916186.,-1.5916621685,916186.,-2.5717411041
916206.,29.1942481995,916206.,-1.1843898296,916206.,-2.3878798485
916226.,27.3498744965,916226.,-1.3081172705,916226.,-2.1749155521
916246.,25.6330852509,916246.,-1.0453113317,916246.,-2.0494496822
916266.,23.8101215363,916266.,-1.2683154345,916266.,-1.7380557060
916286.,21.7241477966,916286.,-1.0981205702,916286.,-1.503035903
916306.,19.4662456512,916306.,-1.0319128036,916306.,-1.2447253466
916326.,17.2511615753,916326.,-0.9398813844,916326.,-1.1762597561
916346.,14.7542686462,916346.,-0.9927300811,916346.,-1.1337970495
916366.,12.1939029694,916366.,-1.1803655624,916366.,-1.0216223001
916386.,9.4863967896,916386.,-1.1660016775,916386.,-0.3436126709
916406.,6.6538648605,916406.,-1.3125506639,916406.,-0.0980607197
916426.,3.8057367802,916426.,-1.1366176605,916426.,-0.1220060736
916446.,1.0328187943,916446.,-1.4092175961,916446.,0.3695851266
916466.,-1.807792902,916466.,-1.2217128277,916466.,0.4640077949
916486.,-4.6237549782,916486.,-1.1851509809,916486.,0.8967777491
916506.,-7.5704283714,916506.,-1.2243814468,916506.,1.1410399675
916526.,-10.2283468246,916526.,-1.0222541094,916526.,1.1542865038
916546.,-12.8278532028,916546.,-0.9985964298,916546.,1.6739352942
916566.,-15.3831043243,916566.,-0.5391119719,916566.,1.8338266611
916586.,-17.5910625458,916586.,-0.3218164146,916586.,1.9045467377
916606.,-20.1980819702,916606.,-0.4379804134,916606.,2.1968135834
916626.,-22.1287517548,916626.,-0.3742856681,916626.,2.1801772118
916646.,-24.2875900269,916646.,-0.2218915671,916646.,2.4372341633
916666.,-26.2137184143,916666.,-0.0566315129,916666.,2.7729845047
916686.,-27.520483017,916686.,-0.5627029538,916686.,2.7755281925
916706.,-29.0128574371,916706.,0.3457008302,916706.,2.8630838394
916726.,-30.3132648468,916726.,0.1252894998,916726.,3.1521084309
916746.,-31.6817512512,916746.,0.1350483298,916746.,2.9563999176
916766.,-31.6563949585,916766.,-0.0711598247,916766.,3.0500345230
916786.,-32.7289466858,916786.,0.0103020146,916786.,3.0978171825
916806.,-33.0753974915,916806.,0.1680036634,916806.,3.2622618675
916826.,-32.3510437012,916826.,-0.2755960226,916826.,3.4712905884
916846.,-31.8770751953,916846.,0.1686087996,916846.,3.3719830513
916866.,-32.110118866,916866.,-0.1115685105,916866.,3.5127255917
916886.,-31.5150566101,916886.,0.2871013284,916886.,2.8231830597
916906.,-30.6042251587,916906.,0.5628592968,916906.,3.3377873898
916926.,-29.5396633148,916926.,0.3448437452,916926.,2.8080132008
916946.,-28.0880012512,916946.,0.8393421173,916946.,3.1099231243
916966.,-26.6295299530,916966.,0.8189401031,916966.,2.8790192604
916986.,-24.8771495819,916986.,0.7015311122,916986.,2.6462850571
917006.,-22.9868984222,917006.,1.0840411186,917006.,2.4432961941
917026.,-20.7833385468,917026.,1.2594146729,917026.,2.3491625786
917046.,-18.2685489655,917046.,1.3633933067,917046.,2.0257823467
917066.,-16.1146163940,917066.,1.1008388996,917066.,1.6758555174
917086.,-13.5463161469,917086.,0.8902913928,917086.,1.7032873631
917106.,-11.5710163116,917106.,1.1399235725,917106.,1.558347106
917126.,-8.2373332977,917126.,1.1313381195,917126.,1.1972929239
917146.,-6.3896889687,917146.,1.205036521,917146.,1.0196865797
917166.,-2.4898486137,917166.,0.8839232326,917166.,1.0203984976
917186.,0.2305441797,917186.,0.9376536608,917186.,0.187857464
917206.,2.7431325912,917206.,1.0149819851,917206.,0.3943875432
917226.,4.8621563911,917226.,0.8367831111,917226.,-0.1087375283
917246.,8.4130506516,917246.,0.9706735611,917246.,-0.4615181088
917266.,9.9404001236,917266.,1.3694385290,917266.,-0.5269238949
917286.,13.4114236832,917286.,1.3028903008,917286.,-0.8300370574
917306.,16.1113414764,917306.,1.4699860811,917306.,-0.9681429863
917326.,18.2276992798,917326.,1.3282412291,917326.,-1.2538678646
917346.,20.5680160522,917346.,1.3432561159,917346.,-1.3108825684
917366.,23.0694427490,917366.,1.5995161533,917366.,-1.6727257967
917386.,24.6706695557,917386.,1.3708218336,917386.,-2.1091227531
917406.,26.4815444946,917406.,1.1674201488,917406.,-1.9717230797
917426.,28.1169719696,917426.,1.4788522720,917426.,-2.4917356968
917446.,29.7361183167,917446.,1.4262096882,917446.,-2.407474041
917466.,30.7866859436,917466.,1.0805312395,917466.,-2.5675330162
917486.,31.7029819489,917486.,0.9739900231,917486.,-2.7188515663
917506.,32.5274391174,917506.,0.9829838276,917506.,-2.6688184738
917526.,32.8363189697,917526.,0.7567643523,917526.,-2.5118093491
917546.,33.1312599182,917546.,0.6138977408,917546.,-2.7639133930
917566.,33.0435295105,917566.,0.4607660770,917566.,-2.5123379230
917586.,32.7131423950,917586.,0.1970975995,917586.,-2.681483984
917606.,32.4483718872,917606.,0.3872552514,917606.,-2.4776256084
917626.,31.8974533081,917626.,0.3674614429,917626.,-2.8380508423
917646.,30.8183956146,917646.,0.1543488652,917646.,-2.5813212395
917666.,29.7610206604,917666.,0.2742598653,917666.,-2.4902956486
917686.,28.4431571960,917686.,0.0029516565,917686.,-2.5529441833
917706.,26.744802475,917706.,-0.0421342403,917706.,-2.2238664627
917726.,25.0174617767,917726.,-0.3275057077,917726.,-1.9702780247
917746.,23.3914432526,917746.,-0.2212997526,917746.,-1.9286683798
917766.,21.2528057098,917766.,-0.4406933188,917766.,-1.4786154032
917786.,18.9389514923,917786.,-0.5345349312,917786.,-1.5107702017
917806.,16.6903781891,917806.,-0.3543602228,917806.,-1.0472266674
917826.,14.2003898621,917826.,-1.1241378784,917826.,-1.02032125
917846.,11.4519252777,917846.,-1.0322667360,917846.,-0.7819464207
917866.,8.9214286804,917866.,-1.1928012371,917866.,-0.8009762764
917886.,6.2223844528,917886.,-1.2861150503,917886.,-0.0106208418
917906.,3.2781412601,917906.,-1.4969111681,917906.,0.0287003201
917926.,0.4133753777,917926.,-1.5789029598,917926.,0.4644309580
917946.,-2.1574168205,917946.,-1.3494728804,917946.,0.5556323528
917966.,-5.2490887642,917966.,-1.549315691,917966.,0.8952901959
917986.,-7.7225618362,917986.,-1.3037893772,917986.,0.965528965
918006.,-10.6440525055,918006.,-1.3520548344,918006.,1.3987290859
918026.,-13.1134891510,918026.,-1.3382115364,918026.,1.605132103
918046.,-15.2738313675,918046.,-1.2311807871,918046.,1.5812636614
918066.,-17.8204383850,918066.,-1.2806193829,918066.,2.2777826786
918086.,-20.0277175903,918086.,-1.1738902330,918086.,1.9932547808
918106.,-22.2988815308,918106.,-1.0455498695,918106.,2.4496338367
918126.,-24.1626853943,918126.,-1.3398119211,918126.,2.4794943333
918146.,-25.8570537567,918146.,-0.9288187027,918146.,2.6543917656
918166.,-27.4729518890,918166.,-1.4008449316,918166.,2.9299976826
918186.,-28.8964099884,918186.,-1.2081956863,918186.,2.8493766785
918206.,-30.0543460846,918206.,-1.2763854265,918206.,3.0518679619
918226.,-31.0722141266,918226.,-1.2001188993,918226.,3.0397818089
918246.,-31.5816173553,918246.,-1.2510453463,918246.,3.3420221806
918266.,-32.2657508850,918266.,-1.1720463037,918266.,3.4545478821
918286.,-32.4852905273,918286.,-1.2259504795,918286.,3.0867078304
918306.,-32.4999351501,918306.,-1.1114128828,918306.,3.4940705299
918326.,-32.2220306396,918326.,-1.2429320812,918326.,3.0519993305
918346.,-31.660358429,918346.,-0.5203870535,918346.,3.2281656265
918366.,-30.9270515442,918366.,-0.7098022103,918366.,3.0116906166
918386.,-29.8628253937,918386.,-0.4033540785,918386.,2.9380404949
918406.,-28.8082427979,918406.,-0.5967912078,918406.,2.905189991
918426.,-27.5654354095,918426.,-0.4163207114,918426.,2.7282528877
918446.,-25.8258419037,918446.,-0.2870367467,918446.,2.6828143597
918466.,-24.2278594971,918466.,-0.523773253,918466.,2.6705000401
918486.,-22.4080162048,918486.,-0.213761732,918486.,2.3177335262
918506.,-20.3047580719,918506.,-0.1154367402,918506.,1.9661231041
918526.,-17.9051647186,918526.,-0.1149612963,918526.,1.8530853987
918546.,-15.7047395706,918546.,-0.1765028834,918546.,1.8277652264
918566.,-13.0623807907,918566.,-0.0679699406,918566.,1.3295810223
918586.,-10.4581899643,918586.,0.1324861497,918586.,1.1000946760
918606.,-7.8380713463,918606.,-0.0567407422,918606.,1.2383352518
918626.,-5.1081261635,918626.,0.3023202121,918626.,0.5441215038
918646.,-2.2069389820,918646.,0.3451291621,918646.,0.3617752790
918666.,0.2964445353,918666.,0.4980499148,918666.,0.3598732948
918686.,3.3484144211,918686.,0.5091817379,918686.,0.0828010887
918706.,5.8875799179,918706.,0.641843617,918706.,0.0061761071
918726.,8.4152297974,918726.,0.8676518798,918726.,-0.4146329761
918746.,11.1158485413,918746.,0.9517486691,918746.,-0.6020041108
918766.,13.7142333984,918766.,0.9541741014,918766.,-1.2043418884
918786.,16.0740528107,918786.,1.3125873804,918786.,-1.2227365971
918806.,18.6610050201,918806.,1.3313122988,918806.,-1.4744838476
918826.,20.9333705902,918826.,1.4731948376,918826.,-1.6563640833
918846.,22.8454208374,918846.,1.4601314068,918846.,-1.7160081863
918866.,24.9527015686,918866.,1.7718201876,918866.,-1.9273594618
918886.,26.4971637726,918886.,1.5412921906,918886.,-2.0435674191
918906.,28.1265563965,918906.,1.4122122526,918906.,-2.1942894459
918926.,29.3720169067,918926.,1.4923560619,918926.,-2.3539378643
918946.,30.3617763519,918946.,1.4610279799,918946.,-2.5098662376
918966.,31.5776233673,918966.,1.5136711597,918966.,-2.7895853519
918986.,32.0669708252,918986.,1.3271096945,918986.,-2.5654273033
919006.,32.4826507568,919006.,1.5121420622,919006.,-2.8438534737
919026.,32.8940124512,919026.,1.46378088,919026.,-2.7605724335
919046.,32.7203102112,919046.,1.5420820713,919046.,-2.7472627163
919066.,32.3804664612,919066.,1.75337708,919066.,-2.7276110649
919086.,31.8366241455,919086.,1.7013978958,919086.,-2.6903352737
919106.,31.1314849854,919106.,1.4667713642,919106.,-2.2941448689
919126.,30.4890441895,919126.,1.3635176420,919126.,-2.3493545055
919146.,29.2673206329,919146.,1.5125619173,919146.,-2.6159863472
919166.,27.6530151367,919166.,1.5031163692,919166.,-2.6343050003
919186.,26.2038383484,919186.,1.6416424513,919186.,-2.2411928177
919206.,24.4529666901,919206.,1.0329827070,919206.,-1.8628150225
919226.,22.3986358643,919226.,1.1403764486,919226.,-1.8454414606
919246.,20.5682239532,919246.,0.585726738,919246.,-1.5588562489
919266.,18.4256057739,919266.,0.6826460361,919266.,-1.3526798487
919286.,15.8855314255,919286.,0.5579100251,919286.,-1.0224335194
919306.,13.4831581116,919306.,0.5276368260,919306.,-0.8486130238
919326.,10.9248218536,919326.,0.2943314314,919326.,-0.6918524504
919346.,8.1170654297,919346.,0.1197081953,919346.,-0.4405028522
919366.,5.5121655464,919366.,0.1307626218,919366.,-0.3250353634
919386.,2.7823987007,919386.,-0.2278502285,919386.,0.0566503964
919406.,-0.1447942704,919406.,-0.3414578438,919406.,0.2178106606
919426.,-2.6256086826,919426.,-0.1554287523,919426.,0.4871110916
919446.,-5.6578025818,919446.,-0.2119238675,919446.,1.0360524654
919466.,-8.1936006546,919466.,-0.1354682446,919466.,0.9240350723
919486.,-10.6860408783,919486.,-0.1381336004,919486.,1.0337374210
919506.,-13.2855081558,919506.,-0.2631189525,919506.,1.4412875175
919526.,-15.9350376129,919526.,-0.5709035397,919526.,1.6117049456
919546.,-18.2204780579,919546.,-0.4743897021,919546.,1.6770722866
919566.,-20.2661361694,919566.,-0.8837161660,919566.,2.1190741062
919586.,-22.4153957367,919586.,-0.8781894445,919586.,2.3562219143
919606.,-24.2445144653,919606.,-0.8940733075,919606.,2.5423765182
919626.,-26.0087108612,919626.,-1.0576088428,919626.,2.7932510376
919646.,-27.5648345947,919646.,-1.2205914259,919646.,2.9764237404
919666.,-28.5329189301,919666.,-1.3993599415,919666.,2.9512035847
919686.,-29.7616729736,919686.,-1.1888676882,919686.,2.7084765434
919706.,-30.4673099518,919706.,-1.3897908926,919706.,3.3624436855
919726.,-31.2504348755,919726.,-1.5147135258,919726.,3.0071332455
