gyro.x_x,gyro.x_y,gyro.y_x,gyro.y_y,gyro.z_x,gyro.z_y
694493.,25.8123130798,694493.,-0.9317771792,694493.,-2.3236799240
694513.,29.6727771759,694513.,-0.6091014147,694513.,-2.1951639652
694533.,32.1225204468,694533.,-1.1431764364,694533.,-2.4608330727
694553.,35.8310432434,694553.,-0.3836819232,694553.,-2.7025167942
694573.,37.704120636,694573.,0.1035290882,694573.,-3.3598265648
694593.,39.1262245178,694593.,0.5709156990,694593.,-2.9950532913
694613.,41.2370529175,694613.,1.4038125277,694613.,-3.6114671230
694633.,43.7078056335,694633.,2.4741871357,694633.,-3.7596766949
694653.,43.8909988403,694653.,2.6166229248,694653.,-3.5481779575
694673.,44.7264938354,694673.,3.1956000328,694673.,-3.7930214405
694693.,45.7901115417,694693.,3.6960093975,694693.,-4.0253133774
694713.,45.5174636841,694713.,3.3871941566,694713.,-3.9071502686
694733.,45.3479194641,694733.,3.1589303017,694733.,-3.5842525959
694753.,44.9850616455,694753.,2.8000402451,694753.,-3.8307974339
694773.,43.7041435242,694773.,2.3263800144,694773.,-3.4379193783
694793.,42.6784591675,694793.,1.1788191795,694793.,-3.5204405785
694813.,41.4308624268,694813.,0.8416818380,694813.,-3.5755949020
694833.,39.4822807312,694833.,0.177854389,694833.,-3.2785317898
694853.,37.3652114868,694853.,-0.0455133840,694853.,-3.4773418903
694873.,34.9136238098,694873.,-0.1818809509,694873.,-3.2432749271
694893.,31.9313602448,694893.,-0.4558273256,694893.,-2.6935751438
694913.,28.960767746,694913.,-0.1896402985,694913.,-2.4383945465
694933.,26.1714572906,694933.,0.2609681487,694933.,-2.4099476337
694953.,22.8248023987,694953.,0.9187591076,694953.,-1.9563535452
694973.,18.7952976227,694973.,1.3890868425,694973.,-1.3444768190
694993.,15.3358974457,694993.,1.7803249359,694993.,-1.4562221766
695013.,11.2799425125,695013.,2.1709234715,695013.,-0.8394741416
695033.,7.6470823288,695033.,2.4267511368,695033.,-0.1917744428
695053.,3.6365954876,695053.,2.3903684616,695053.,0.0399879292
695073.,-0.4684820771,695073.,2.0266737938,695073.,0.0712534934
695093.,-4.4898610115,695093.,1.6403645277,695093.,0.8465692997
695113.,-8.3869819641,695113.,1.3490729332,695113.,0.9693326950
695133.,-12.0034351349,695133.,0.4136326909,695133.,1.2273515463
695153.,-15.8716392517,695153.,-0.2319864035,695153.,1.6851956844
695173.,-19.694475174,695173.,-0.9224414825,695173.,2.0434384346
695193.,-23.2939910889,695193.,-1.2494643927,695193.,2.1548752785
695213.,-26.4463176727,695213.,-1.9429490566,695213.,2.8486356735
695233.,-29.5420627594,695233.,-1.9902501106,695233.,3.068333149
695253.,-32.4618492126,695253.,-1.6773786545,695253.,2.9808676243
695273.,-35.0774421692,695273.,-1.9225661755,695273.,3.4168846607
695293.,-37.5330848694,695293.,-1.3213874102,695293.,3.8984572887
695313.,-39.4887161255,695313.,-0.6889615655,695313.,3.9457726479
695333.,-41.2099914551,695333.,-0.5159755945,695333.,4.2107930183
695353.,-42.3657836914,695353.,0.2652544379,695353.,4.3036737442
695373.,-43.5852394104,695373.,0.5858100057,695373.,4.223048687
695393.,-44.2299079895,695393.,0.8331700563,695393.,4.2010540962
695413.,-44.8968009949,695413.,0.8322080374,695413.,4.3976049423
695433.,-44.7419128418,695433.,0.2697674930,695433.,4.4175634384
695453.,-44.2160949707,695453.,0.1568472832,695453.,4.1539278030
695473.,-43.6182861328,695473.,-0.6626209617,695473.,4.4343852997
695493.,-42.8151397705,695493.,-1.2472455502,695493.,3.8879859447
695513.,-41.2802429199,695513.,-1.8998007774,695513.,3.7698366642
695533.,-39.4990577698,695533.,-2.3889422417,695533.,3.8545284271
695553.,-37.6785316467,695553.,-2.7196679115,695553.,3.5635006428
695573.,-35.3216781616,695573.,-3.0117759705,695573.,3.141974926
695593.,-32.6984481812,695593.,-2.9947042465,695593.,3.0593900681
695613.,-30.0156383514,695613.,-2.8270041943,695613.,2.8954298496
695633.,-26.7062911987,695633.,-2.5007305145,695633.,2.8005485535
695653.,-23.7534294128,695653.,-1.8776186705,695653.,2.1860859394
695673.,-20.1942920685,695673.,-1.1187696457,695673.,2.1116089821
695693.,-16.4532432556,695693.,-0.7383897305,695693.,1.5771398544
695713.,-12.5589857101,695713.,-0.1856720001,695713.,1.2899414301
695733.,-8.9382352829,695733.,-0.0696281493,695733.,1.2282921076
695753.,-5.097234726,695753.,0.4006052315,695753.,0.3799580336
695773.,-1.0186904669,695773.,0.4390403628,695773.,0.1885760278
695793.,2.8386943340,695793.,0.2246170789,695793.,0.0367269181
695813.,6.7901072502,695813.,-0.0980054662,695813.,-0.6095255017
695833.,10.8025665283,695833.,-0.3686505854,695833.,-1.2888013124
695853.,14.7823457718,695853.,-0.9025366306,695853.,-1.2656652927
695873.,17.9721240997,695873.,-0.9825519919,695873.,-1.5386959314
695893.,21.5171737671,695893.,-1.5783060789,695893.,-1.8347243071
695913.,25.0189037323,695913.,-1.9899802208,695913.,-2.2163145542
695933.,28.2081794739,695933.,-2.0009069443,695933.,-2.6820964813
695953.,31.3190555573,695953.,-1.6765551567,695953.,-2.8867888451
695973.,34.0625495911,695973.,-1.5998871326,695973.,-3.0694904327
695993.,36.5237236023,695993.,-0.9245562553,695993.,-3.1176354885
696013.,38.8861541748,696013.,-0.2313466221,696013.,-3.3983466625
696033.,40.701084137,696033.,0.5032674670,696033.,-3.877404213
696053.,41.9345779419,696053.,1.0259034634,696053.,-3.8631067276
696073.,43.2763938904,696073.,1.5540693998,696073.,-3.7694039345
696093.,44.0562744141,696093.,2.0546813011,696093.,-3.9839713573
696113.,44.6350212097,696113.,2.0848841667,696113.,-3.7434103489
696133.,45.2143974304,696133.,2.1602938175,696133.,-4.0662641525
696153.,44.9119949341,696153.,1.8480587006,696153.,-3.7967278957
696173.,44.1832199097,696173.,1.6719506979,696173.,-3.8263924122
696193.,43.8770637512,696193.,0.9655247331,696193.,-3.8273687363
696213.,42.4142456055,696213.,0.5454965234,696213.,-3.2924904823
696233.,40.7683677673,696233.,0.3826565444,696233.,-3.3866088390
696253.,39.1214256287,696253.,-0.0480652079,696253.,-3.1468718052
696273.,36.7648468018,696273.,-0.332082361,696273.,-3.2857713699
696293.,34.4722976685,696293.,-0.5145972967,696293.,-3.1060285568
696313.,31.8129463196,696313.,-0.194136709,696313.,-2.9120855331
696333.,28.5905723572,696333.,0.3510722816,696333.,-2.4817512035
696353.,25.9241046906,696353.,0.4981922209,696353.,-2.2577745914
696373.,22.4007873535,696373.,0.9699119925,696373.,-2.2199428082
696393.,18.980840683,696393.,1.0773546696,696393.,-1.5132623911
696413.,15.3313302994,696413.,1.7462673187,696413.,-1.2525997162
696433.,11.7631692886,696433.,2.5670413971,696433.,-1.0323622227
696453.,7.9510498047,696453.,2.3546953201,696453.,-0.3901197314
696473.,3.7074828148,696473.,2.3262915611,696473.,0.0546116605
696493.,-0.0593873560,696493.,2.3875102997,696493.,0.1576944292
696513.,-4.2618031502,696513.,1.9959328175,696513.,0.5291081071
696533.,-7.8229465485,696533.,1.6181303263,696533.,1.0463964939
696553.,-11.7690181732,696553.,1.0778340101,696553.,1.3239678144
696573.,-15.5408210754,696573.,0.3490055799,696573.,1.6190867424
696593.,-19.1867427826,696593.,-0.029269781,696593.,1.8665841818
696613.,-22.474313736,696613.,-0.7294605970,696613.,2.3191392422
696633.,-25.8481063843,696633.,-0.7698171139,696633.,2.6176171303
696653.,-28.7852611542,696653.,-0.574313581,696653.,2.6954946518
696673.,-31.6308822632,696673.,-0.6791588068,696673.,3.0453855991
696693.,-34.3251533508,696693.,-0.3811552525,696693.,3.4440863132
696713.,-36.7943534851,696713.,-0.2306936383,696713.,3.6829576492
696733.,-38.5410003662,696733.,0.3630189002,696733.,3.6678287983
696753.,-40.4157981873,696753.,0.9002988935,696753.,3.8452823162
696773.,-41.8184700012,696773.,1.3561631441,696773.,4.1938047409
696793.,-42.5980987549,696793.,1.4616535902,696793.,3.9288218021
696813.,-43.6110687256,696813.,1.475638032,696813.,4.5557870865
696833.,-43.91381073,696833.,1.5120825768,696833.,4.1881361008
696853.,-43.9625854492,696853.,1.21788764,696853.,4.3860569000
696873.,-43.8274002075,696873.,0.6839123368,696873.,4.3139781952
696893.,-43.0997352600,696893.,0.0127838515,696893.,4.0879006386
696913.,-42.2084732056,696913.,-0.0578245223,696913.,4.0239400864
696933.,-40.6134185791,696933.,-0.6791287065,696933.,3.873156786
696953.,-39.0717353821,696953.,-1.1214840412,696953.,3.9355940819
696973.,-37.1771850586,696973.,-1.5063451529,696973.,3.6331477165
696993.,-34.8309631348,696993.,-1.5714008808,696993.,3.4115138054
697013.,-32.5105552673,697013.,-1.4829839468,697013.,3.4657788277
697033.,-29.5852508545,697033.,-1.3913964033,697033.,2.9292004108
697053.,-26.5742778778,697053.,-1.0940822363,697053.,2.8490929604
697073.,-23.8141899109,697073.,-1.0318138599,697073.,2.7505247593
697093.,-20.3270568848,697093.,-0.3078502417,697093.,1.8375463486
697113.,-16.769197464,697113.,-0.0529320985,697113.,1.919059515
697133.,-13.0041255951,697133.,0.4428855777,697133.,1.5278780460
697153.,-9.4437751770,697153.,0.6956304312,697153.,1.0936838388
697173.,-5.4353375435,697173.,0.5949710011,697173.,0.6629499793
697193.,-1.5833541155,697193.,0.6932399869,697193.,0.3042226732
697213.,2.1216173172,697213.,0.440202117,697213.,-0.1206141114
697233.,6.3118414879,697233.,-0.0740668923,697233.,-0.3310737908
697253.,10.1081800461,697253.,-0.4827389717,697253.,-0.9368519783
697273.,13.7682209015,697273.,-1.1039925814,697273.,-1.1887210608
697293.,17.3914222717,697293.,-1.3372203112,697293.,-1.8920512199
697313.,20.9767532349,697313.,-1.7017279863,697313.,-1.9085170031
697333.,24.2884292603,697333.,-1.9226623774,697333.,-2.1268877983
697353.,27.3237323761,697353.,-2.3313176632,697353.,-2.4986844063
697373.,30.7024631500,697373.,-1.9905184507,697373.,-2.7405970097
697393.,33.2505607605,697393.,-1.8734452724,697393.,-3.2078430653
697413.,35.7210006714,697413.,-1.5830290318,697413.,-3.0691249371
697433.,37.6769599915,697433.,-0.7247990966,697433.,-3.4501650333
697453.,39.8803291321,697453.,-0.5364741087,697453.,-3.4866690636
697473.,41.5814552307,697473.,0.3422366381,697473.,-3.6683897972
697493.,41.6605377197,697493.,0.5337767005,697493.,-3.5937540531
697513.,43.0503540039,697513.,0.9243868589,697513.,-3.8527936935
697533.,43.8003692627,697533.,0.9466853738,697533.,-3.9787633419
697553.,44.5259513855,697553.,0.9616722465,697553.,-3.6411187649
697573.,43.9948310852,697573.,0.8521533608,697573.,-3.9357049465
697593.,44.2996444702,697593.,0.0150627065,697593.,-3.4163277149
697613.,42.5762405396,697613.,-0.1884587407,697613.,-3.7984216213
697633.,41.5000686646,697633.,-0.6195665598,697633.,-3.7603971958
697653.,40.5807533264,697653.,-1.3182835579,697653.,-3.0980424881
697673.,38.4196166992,697673.,-0.770639956,697673.,-3.2502508163
697693.,36.4787139893,697693.,-1.0771995783,697693.,-2.941778183
697713.,33.9206695557,697713.,-1.2576335669,697713.,-2.8486487865
697733.,31.4454154968,697733.,-1.0503952503,697733.,-2.5617263317
697753.,27.931016922,697753.,-0.4795343578,697753.,-2.7062556744
697773.,26.0458545685,697773.,-0.7022458315,697773.,-1.9463990927
697793.,21.9736003876,697793.,0.2424313277,697793.,-1.8054822683
697813.,18.9242591858,697813.,1.0146596432,697813.,-1.4088354111
697833.,15.5570344925,697833.,1.0256884098,697833.,-0.7965457439
697853.,12.0170993805,697853.,1.2187526226,697853.,-0.5894521475
697873.,7.5643787384,697873.,1.3893594742,697873.,-0.5171625018
697893.,4.0523405075,697893.,1.3691052198,697893.,-0.2007299364
697913.,0.4161268771,697913.,1.1397578716,697913.,0.1931310296
697933.,-3.3519051075,697933.,1.0093048811,697933.,0.4015498459
697953.,-7.57670784,697953.,0.6878929734,697953.,1.0959821939
697973.,-11.2205858231,697973.,-0.082995981,697973.,1.3200180531
697993.,-14.6947326660,697993.,-0.1467034817,697993.,1.330632329
698013.,-18.5285511017,698013.,-0.4067058861,698013.,1.8481887579
698033.,-21.9019432068,698033.,-0.6388394237,698033.,2.4069869518
698053.,-25.2047119141,698053.,-0.8134232163,698053.,2.5269899368
698073.,-27.9941425323,698073.,-0.6869953275,698073.,2.7850453854
698093.,-30.9398288727,698093.,-0.6271291375,698093.,3.2418758869
698113.,-33.492805481,698113.,-0.1204071194,698113.,3.039649725
698133.,-35.6034889221,698133.,0.2524887025,698133.,3.2311987877
698153.,-38.1535644531,698153.,0.4061371088,698153.,3.7326192856
698173.,-39.7656478882,698173.,1.087574482,698173.,3.8543770313
698193.,-41.0755500793,698193.,1.4148263931,698193.,4.0099506378
698213.,-42.1455917358,698213.,1.7091745138,698213.,4.408203125
698233.,-42.7404022217,698233.,1.4361993074,698233.,4.380689621
698253.,-43.2312164307,698253.,1.4551582336,698253.,3.9259784222
698273.,-43.2967300415,698273.,1.3818801641,698273.,4.5241737366
698293.,-43.0951347351,698293.,1.0221145153,698293.,4.3312568665
698313.,-42.2779579163,698313.,0.8076596260,698313.,3.8947339058
698333.,-41.5408744812,698333.,0.3985002637,698333.,4.1622271538
698353.,-40.2636871338,698353.,-0.0055688042,698353.,4.0600538254
698373.,-38.6724472046,698373.,-0.3611249924,698373.,3.7901930809
698393.,-36.6852760315,698393.,-0.3429479599,698393.,3.8250105381
698413.,-34.6022872925,698413.,-0.4569654465,698413.,3.6188907623
698433.,-32.1956481934,698433.,-0.3716184795,698433.,3.0077314377
698453.,-29.5889472961,698453.,-0.3132760525,698453.,2.9670023918
698473.,-26.4655323029,698473.,0.2096925527,698473.,2.6045196056
698493.,-23.2311630249,698493.,0.6076231003,698493.,2.3548388481
698513.,-19.9796867371,698513.,0.9366822243,698513.,2.5339550972
698533.,-16.6186180115,698533.,1.1046963930,698533.,1.8867076635
698553.,-13.0197706223,698553.,1.3877946138,698553.,1.7053331137
698573.,-9.2413053513,698573.,1.4033573866,698573.,1.3113195896
698593.,-5.4558739662,698593.,1.3186479807,698593.,0.9832018614
698613.,-1.7320655584,698613.,1.3235667944,698613.,0.7545326352
698633.,2.3111937046,698633.,1.1382784843,698633.,0.1333757937
698653.,6.0801258087,698653.,0.8600758314,698653.,-0.1718042642
698673.,9.6543083191,698673.,0.4036530256,698673.,-0.5442658067
698693.,13.3860845566,698693.,-0.1152614728,698693.,-0.9677631259
698713.,17.1245174408,698713.,-0.4831182659,698713.,-1.2314616442
698733.,20.7019824982,698733.,-0.9596394897,698733.,-1.6867715120
698753.,23.7439861298,698753.,-0.8244669437,698753.,-1.6260421276
698773.,26.7905578613,698773.,-1.212354064,698773.,-2.3331451416
698793.,30.0364170074,698793.,-1.1976014376,698793.,-2.5674438477
698813.,32.6600379944,698813.,-0.5558253527,698813.,-2.7715690136
698833.,35.0030632019,698833.,-0.2887390554,698833.,-3.0099925995
698853.,37.0058441162,698853.,-0.3049600124,698853.,-3.0899622440
698873.,39.0763778687,698873.,0.2308453172,698873.,-3.5087103844
698893.,40.6417007446,698893.,0.4644823074,698893.,-3.3551909924
698913.,41.7584190369,698913.,0.3656599224,698913.,-3.6665854454
698933.,42.7513999939,698933.,0.9381121993,698933.,-3.6911802292
698953.,43.2030715942,698953.,0.6071991324,698953.,-3.5393424034
698973.,43.3791694641,698973.,0.4215421081,698973.,-3.5156223774
698993.,43.4786720276,698993.,0.2155348212,698993.,-3.4385550022
699013.,43.0903244019,699013.,-0.2284008414,699013.,-3.5543539524
699033.,42.1959190369,699033.,-0.3577331901,699033.,-3.4288284779
699053.,41.1613235474,699053.,-1.0269213915,699053.,-3.4635796547
699073.,39.848777771,699073.,-1.1235899925,699073.,-3.2957394123
699093.,38.1615486145,699093.,-1.4617804289,699093.,-3.3920004368
699113.,36.1296958923,699113.,-1.6200394630,699113.,-3.1017525196
699133.,33.6090698242,699133.,-1.5916445255,699133.,-2.5433528423
699153.,31.1545886993,699153.,-1.1741062403,699153.,-2.7857518196
699173.,28.5004692078,699173.,-1.3804764748,699173.,-2.6166892052
699193.,25.561000824,699193.,-0.9343101978,699193.,-2.2424662113
699213.,22.2167568207,699213.,-0.428388238,699213.,-1.5884010792
699233.,18.9291610718,699233.,-0.3203701079,699233.,-1.5423805714
699253.,15.4594955444,699253.,-0.1841920167,699253.,-1.2976367474
699273.,12.0425434113,699273.,0.0704945102,699273.,-0.6837048531
699293.,7.9964184761,699293.,0.3028161526,699293.,-0.6945399642
699313.,4.4862751961,699313.,0.2983302176,699313.,0.0402602702
699333.,0.5844657421,699333.,-0.0534085333,699333.,0.3236757815
699353.,-2.8879673481,699353.,-0.4556424916,699353.,0.6233413219
699373.,-7.0616812706,699373.,-0.5141165257,699373.,0.8924543858
699393.,-10.6838674545,699393.,-0.9414402246,699393.,1.1598603725
699413.,-14.4569177628,699413.,-1.021491766,699413.,1.7398999929
699433.,-17.9072723389,699433.,-1.6313797235,699433.,1.8214406967
699453.,-21.4430713654,699453.,-1.6262618303,699453.,2.0133500099
699473.,-24.4910030365,699473.,-1.7119314671,699473.,2.6812524796
699493.,-27.578950882,699493.,-1.6802276373,699493.,2.6268086433
699513.,-30.1038475037,699513.,-1.4492563009,699513.,3.1060292721
699533.,-32.7274780273,699533.,-0.9934949875,699533.,3.2833516598
699553.,-35.0341224670,699553.,-0.5448639989,699553.,3.4468121529
699573.,-37.2898635864,699573.,-0.0208934862,699573.,3.8188447952
699593.,-38.698387146,699593.,0.0778483748,699593.,3.7880792618
699613.,-40.4680519104,699613.,0.3499697447,699613.,4.0573921204
699633.,-41.3887062073,699633.,0.5918003917,699633.,4.0753450394
699653.,-42.0146789551,699653.,0.6213231087,699653.,4.1074867249
699673.,-42.5031242371,699673.,0.5133343339,699673.,4.0377497673
699693.,-42.6350975037,699693.,0.0165924001,699693.,4.3729305267
699713.,-42.0854148865,699713.,0.3025269806,699713.,3.9364070892
699733.,-41.6958465576,699733.,-0.1832463592,699733.,4.2693004608
699753.,-41.0650291443,699753.,-0.1916183531,699753.,3.6082048416
699773.,-39.8032684326,699773.,-0.3370406628,699773.,3.6462514400
699793.,-38.0906715393,699793.,-0.574374795,699793.,3.8798656464
699813.,-36.2022857666,699813.,-0.5505603552,699813.,3.5896148682
699833.,-34.3260154724,699833.,-0.5430392027,699833.,3.5858175755
699853.,-31.8503494263,699853.,-0.6310299039,699853.,3.273660183
699873.,-29.1915893555,699873.,-0.1135965586,699873.,3.2107417583
699893.,-26.0631198883,699893.,0.5497857928,699893.,3.0347602367
699913.,-23.1902847290,699913.,0.823119998,699913.,2.5913119316
699933.,-19.8599338531,699933.,1.2838767767,699933.,2.228946209
699953.,-16.6511611938,699953.,1.5642232895,699953.,2.041343689
699973.,-13.126991272,699973.,1.6174870729,699973.,1.7318551540
699993.,-9.4963512421,699993.,2.0065643787,699993.,1.6666533947
700013.,-5.5059700012,700013.,1.8799265623,700013.,0.9049385786
700033.,-1.92436409,700033.,1.898250103,700033.,0.6914681792
700053.,1.843020916,700053.,1.7325819731,700053.,0.4299061596
700073.,5.5953669548,700073.,1.4360129833,700073.,-0.0037881208
700093.,9.4822692871,700093.,1.0128319263,700093.,-0.4259544015
700113.,13.3086910248,700113.,0.9491869807,700113.,-0.7271546125
700133.,16.5175266266,700133.,0.8084296584,700133.,-1.0159875154
700153.,19.9310131073,700153.,0.3957392871,700153.,-1.5524824858
700173.,23.3856315613,700173.,0.5430086255,700173.,-1.6892888546
700193.,26.318605423,700193.,0.3369616866,700193.,-2.0110030174
700213.,28.9910354614,700213.,0.3802064061,700213.,-2.2145113945
700233.,31.8955364227,700233.,0.6103940606,700233.,-2.6832211018
700253.,34.3691444397,700253.,0.7472257614,700253.,-2.8366136551
700273.,36.4759788513,700273.,1.4287590981,700273.,-3.3758542538
700293.,38.2583961487,700293.,1.2900327444,700293.,-3.0974442959
700313.,39.686668396,700313.,1.7609261274,700313.,-3.5596320629
700333.,40.9326782227,700333.,1.9110808372,700333.,-3.4530963898
700353.,42.1219520569,700353.,1.4651435614,700353.,-3.5441167355
700373.,42.3928604126,700373.,1.5275647640,700373.,-3.6228141785
700393.,42.8015136719,700393.,1.1040112972,700393.,-3.5342400074
700413.,42.8844757080,700413.,1.2269355059,700413.,-3.6240620613
700433.,42.5639533997,700433.,0.6932875514,700433.,-3.3559954166
700453.,41.6448669434,700453.,0.3380381763,700453.,-3.5133345127
700473.,40.7434158325,700473.,-0.0798036829,700473.,-3.2605891228
700493.,39.2300949097,700493.,-0.5637283325,700493.,-3.5820910931
700513.,37.400138855,700513.,-0.8986359239,700513.,-3.1342892647
700533.,35.889377594,700533.,-0.5905475020,700533.,-2.9732985497
700553.,33.5500373840,700553.,-1.0431613922,700553.,-2.7787396908
700573.,31.0024261475,700573.,-0.724042058,700573.,-2.5831568241
700593.,28.3129711151,700593.,-0.6012255549,700593.,-2.1208372116
700613.,25.0033626556,700613.,-0.2628620863,700613.,-1.990192771
700633.,22.1184978485,700633.,-0.0967794061,700633.,-1.7618404627
700653.,18.9813766479,700653.,0.006491418,700653.,-1.5530147552
700673.,16.2672977448,700673.,0.2393188477,700673.,-0.9693385959
700693.,11.7683010101,700693.,0.211356923,700693.,-0.6697919369
700713.,7.6151885986,700713.,0.1609760225,700713.,-0.3953641355
700733.,4.6038823128,700733.,0.2997809947,700733.,-0.0540462658
700753.,1.1091010571,700753.,0.3188429177,700753.,0.1298721582
700773.,-2.9799017906,700773.,-0.5847950578,700773.,0.7996615767
700793.,-6.6982641220,700793.,-0.8243103027,700793.,0.8528340459
700813.,-10.8002052307,700813.,-0.9865323305,700813.,1.4508771896
700833.,-13.8854494095,700833.,-1.6977750063,700833.,1.8571572304
700853.,-17.1697940826,700853.,-1.9440718889,700853.,2.2276554108
700873.,-20.6404457092,700873.,-2.4993181229,700873.,2.4088010788
700893.,-23.514913559,700893.,-2.0993285179,700893.,2.2875883579
700913.,-26.6561775208,700913.,-1.9278857708,700913.,2.9423928261
700933.,-29.3789157867,700933.,-1.8926664591,700933.,3.0287344456
700953.,-31.9780769348,700953.,-1.8122671843,700953.,3.5119845867
700973.,-34.1408653259,700973.,-1.7306627035,700973.,3.6440737247
700993.,-36.4015541077,700993.,-1.1906145811,700993.,3.3694958687
701013.,-38.1263618469,701013.,-0.8864421248,701013.,3.8034989834
701033.,-39.6037750244,701033.,-0.7615706921,701033.,4.1906781197
701053.,-40.1699943542,701053.,-0.6385679841,701053.,3.913449049
701073.,-41.5861892700,701073.,-0.9227169752,701073.,4.1987285614
701093.,-41.5752563477,701093.,-0.7026850581,701093.,4.0458383560
701113.,-41.9968147278,701113.,-0.9222279191,701113.,3.9159407616
701133.,-40.9930992126,701133.,-0.8313339949,701133.,3.9667503834
701153.,-41.3788948059,701153.,-1.2904027700,701153.,4.0647306442
701173.,-40.1110000610,701173.,-1.7855474949,701173.,3.7058465481
701193.,-39.2118949890,701193.,-1.5805128813,701193.,3.8646912575
701213.,-37.8316955566,701213.,-1.9474614859,701213.,3.8710172176
701233.,-35.6597633362,701233.,-1.6619654894,701233.,3.3461205959
701253.,-33.7584571838,701253.,-1.3455469608,701253.,3.1080493927
701273.,-31.5073146820,701273.,-1.1896899939,701273.,3.320088625
701293.,-28.8891067505,701293.,-0.7514960766,701293.,2.9694867134
701313.,-26.0413150787,701313.,-0.3894097209,701313.,2.5166625977
701333.,-23.2043838501,701333.,0.1071387604,701333.,2.7211098671
701353.,-19.8702354431,701353.,0.1879078597,701353.,1.9253714085
701373.,-16.4590377808,701373.,0.6571446657,701373.,2.0720643997
701393.,-13.4079408646,701393.,0.9224808216,701393.,1.8384479284
701413.,-9.5549821854,701413.,1.3556642532,701413.,1.2165768147
701433.,-5.6247906685,701433.,1.1938554049,701433.,0.6392517686
701453.,-2.2396690845,701453.,1.2992876768,701453.,0.4807568192
701473.,1.5538972616,701473.,1.1487834454,701473.,-0.0649385750
701493.,5.1940617561,701493.,0.8686633706,701493.,-0.1813353747
701513.,8.8959455490,701513.,0.7216812968,701513.,-0.2326041460
701533.,12.6464490891,701533.,0.5707617402,701533.,-0.7293460369
701553.,15.8618812561,701553.,0.7824474573,701553.,-1.0096322298
701573.,19.3581562042,701573.,0.3267821372,701573.,-1.4049901962
701593.,22.6205787659,701593.,0.6149322987,701593.,-1.7172759771
701613.,25.8051624298,701613.,0.8407503366,701613.,-2.1062080860
701633.,28.4574012756,701633.,0.7971861959,701633.,-2.3384335041
701653.,30.9963474274,701653.,1.0668674707,701653.,-2.629981041
701673.,33.6573333740,701673.,1.4719368219,701673.,-2.9367139339
701693.,35.6527633667,701693.,1.5391244888,701693.,-2.7883031368
701713.,37.524723053,701713.,2.1796786785,701713.,-2.6997454166
701733.,38.7870559692,701733.,2.147289753,701733.,-3.0817108154
701753.,40.2017173767,701753.,2.2023088932,701753.,-3.3569538593
701773.,41.1962585449,701773.,2.1507546902,701773.,-3.1707823277
701793.,41.882598877,701793.,2.1881816387,701793.,-3.3562726974
701813.,42.0646209717,701813.,1.7448754311,701813.,-3.4692814350
701833.,42.0084648132,701833.,1.6070137024,701833.,-3.5981850624
701853.,41.5629234314,701853.,1.4086362123,701853.,-3.4021863937
701873.,41.1709899902,701873.,1.059645772,701873.,-3.7134771347
701893.,40.0266609192,701893.,0.8585475683,701893.,-3.4082863331
701913.,39.0175132751,701913.,0.8204668164,701913.,-3.2824959755
701933.,37.1905708313,701933.,0.5523864627,701933.,-3.2201113701
701953.,34.9605331421,701953.,0.7807503343,701953.,-3.0565037727
701973.,33.0260047913,701973.,0.2617055178,701973.,-2.9284160137
701993.,30.4103908539,701993.,0.7858243585,701993.,-2.7342157364
702013.,27.9217472076,702013.,0.5150415301,702013.,-2.3831350803
702033.,24.9934940338,702033.,0.7044760585,702033.,-2.3087697029
702053.,21.9123001099,702053.,0.8506063223,702053.,-1.9611622095
702073.,18.6162414551,702073.,1.2950433493,702073.,-1.5442014933
702093.,15.5334863663,702093.,0.8401317000,702093.,-1.1545394659
702113.,11.8919687271,702113.,1.0221838951,702113.,-0.8652708530
702133.,8.3144559860,702133.,1.1190041304,702133.,-0.4155120254
702153.,4.700024128,702153.,0.7958597541,702153.,-0.0530946925
702173.,1.180367589,702173.,0.4783032238,702173.,0.2536490262
702193.,-2.6194388866,702193.,0.3296502531,702193.,0.5874678493
702213.,-6.2367630005,702213.,-0.2622750401,702213.,0.8689518571
702233.,-9.7544174194,702233.,-0.6904996634,702233.,1.1758300066
702253.,-13.4031429291,702253.,-0.8448255658,702253.,1.4879920483
702273.,-16.82787323,702273.,-1.0864868164,702273.,1.8995720148
702293.,-20.0371150970,702293.,-1.2275521755,702293.,2.0139238834
702313.,-23.1514263153,702313.,-1.2428795099,702313.,2.5273313522
702333.,-26.2158126831,702333.,-1.0906277895,702333.,2.7035355568
702353.,-29.0312957764,702353.,-1.279987216,702353.,2.8370354176
702373.,-31.3146705627,702373.,-0.8335388303,702373.,3.0368492603
702393.,-33.7104110718,702393.,-1.1160326004,702393.,3.4067308903
702413.,-35.7221221924,702413.,-0.922221005,702413.,3.7081329823
702433.,-37.2397689819,702433.,-0.5139005780,702433.,3.8016662598
702453.,-38.7183036804,702453.,-0.5809013247,702453.,3.7418906689
702473.,-39.6827354431,702473.,-0.5714685917,702473.,3.7633929253
702493.,-40.7015991211,702493.,-0.6659651995,702493.,4.007183075
702513.,-40.8244628906,702513.,-0.9458962679,702513.,3.9931678772
702533.,-41.1738586426,702533.,-1.2621949911,702533.,4.2695879936
702553.,-40.9596595764,702553.,-1.4380241632,702553.,4.0598511696
702573.,-40.6336135864,702573.,-1.4902206659,702573.,4.007666111
702593.,-39.5239639282,702593.,-2.1295747757,702593.,3.5423793793
702613.,-38.6611938477,702613.,-2.2737097740,702613.,3.5621137619
702633.,-36.9481697083,702633.,-2.1250762939,702633.,3.8370552063
702653.,-35.4132194519,702653.,-2.4199523926,702653.,3.3942494392
702673.,-33.2827606201,702673.,-1.8670377731,702673.,3.3148570061
702693.,-30.9264507294,702693.,-1.6657363176,702693.,2.7809765339
702713.,-28.5586433411,702713.,-1.6054918766,702713.,2.6614716053
702733.,-25.8892955780,702733.,-1.2491506338,702733.,2.4233276844
702753.,-22.7748756409,702753.,-0.9624552131,702753.,2.2057664394
702773.,-19.6897678375,702773.,-0.7296119928,702773.,1.8809125423
702793.,-16.4292736053,702793.,-0.5420012474,702793.,1.3324723244
702813.,-12.9641971588,702813.,-0.1643875241,702813.,1.2585128546
702833.,-9.4048986435,702833.,-0.0699710324,702833.,1.0890880823
702853.,-5.7481579781,702853.,-0.2112284005,702853.,0.7953022718
702873.,-2.0234925747,702873.,-0.2139336914,702873.,0.2301125228
702893.,1.1935156584,702893.,-0.3101905882,702893.,-0.1741808951
702913.,5.0321412086,702913.,-0.4560885727,702913.,-0.4140962958
702933.,8.6282720566,702933.,-0.4363737702,702933.,-0.6287133694
702953.,12.2448749542,702953.,-0.4435130954,702953.,-0.833853066
702973.,15.5486011505,702973.,-0.6032571197,702973.,-1.3321075439
702993.,19.1566333771,702993.,-0.6281796098,702993.,-1.3139617443
703013.,22.2079505920,703013.,-0.5562459826,703013.,-1.6850661039
703033.,25.0587062836,703033.,-0.1544303,703033.,-2.1124687195
703053.,28.0876808167,703053.,0.2116687,703053.,-2.1465301514
703073.,30.6348781586,703073.,0.5717278123,703073.,-2.6665439606
703093.,32.973815918,703093.,0.6954174638,703093.,-2.6107597351
703113.,34.7288856506,703113.,1.0488755703,703113.,-2.9838585854
703133.,36.8527908325,703133.,1.2447921038,703133.,-3.0520446301
703153.,38.3019714355,703153.,1.3624925613,703153.,-3.1645026207
703173.,39.6946258545,703173.,1.6764122248,703173.,-3.4173448086
703193.,40.5339508057,703193.,1.6428425312,703193.,-3.3549046516
703213.,41.1063117981,703213.,1.5343052149,703213.,-3.4410915375
703233.,41.5724143982,703233.,1.8487410545,703233.,-3.5128495693
703253.,41.3511734009,703253.,1.7260253429,703253.,-3.4352343082
703273.,41.1907463074,703273.,1.1552437544,703273.,-3.4271912575
703293.,40.4147720337,703293.,1.0430296659,703293.,-3.5691766739
703313.,39.2608261108,703313.,1.0304974318,703313.,-3.2611820698
703333.,37.9797210693,703333.,0.5540721416,703333.,-3.3171987534
703353.,36.6494255066,703353.,0.700550437,703353.,-3.1206281185
703373.,34.6225662231,703373.,0.9092677832,703373.,-3.286901474
703393.,32.5333213806,703393.,1.1206398010,703393.,-2.7494390011
703413.,30.2368297577,703413.,1.0545457602,703413.,-2.7479329109
703433.,27.5314655304,703433.,0.9419155121,703433.,-2.3036406040
703453.,24.6686191559,703453.,1.5579144955,703453.,-2.0679912567
703473.,21.5747718811,703473.,1.6346875429,703473.,-1.9266626835
703493.,18.4150409698,703493.,1.4864788055,703493.,-1.2812672853
703513.,15.0505886078,703513.,1.87814641,703513.,-1.1944479942
703533.,11.8858594894,703533.,1.8217022419,703533.,-1.0741537809
703553.,8.0947742462,703553.,1.5381993055,703553.,-0.4139704406
703573.,4.8354463577,703573.,1.2873567343,703573.,-0.0236334223
703593.,1.2346509695,703593.,1.2734309435,703593.,0.0565940551
703613.,-2.5116977692,703613.,0.8383491039,703613.,0.464533031
703633.,-5.7730565071,703633.,0.6878215671,703633.,0.7410007119
703653.,-9.7692928314,703653.,0.5795163512,703653.,0.8710379004
703673.,-13.1255464554,703673.,0.1315059662,703673.,1.2349735498
703693.,-16.5423545837,703693.,-0.0714966729,703693.,1.5867302418
703713.,-19.9073486328,703713.,-0.1023225784,703713.,1.6561558247
703733.,-22.5902481079,703733.,-0.2163349986,703733.,2.2691481113
703753.,-25.7271251678,703753.,0.0427039154,703753.,2.5428593159
703773.,-28.4026222229,703773.,0.3506629169,703773.,2.9182229042
703793.,-30.7700920105,703793.,0.1175796464,703793.,3.1469702721
703813.,-33.1107749939,703813.,0.2299831063,703813.,3.2123773098
703833.,-35.2927131653,703833.,0.2579562366,703833.,3.7861731052
703853.,-36.7249526978,703853.,0.4296922386,703853.,3.7798521519
703873.,-37.6733741760,703873.,-0.971683085,703873.,3.9798779488
703893.,-38.8072433472,703893.,-0.0253424272,703893.,3.7063117027
703913.,-40.1881446838,703913.,0.0478434712,703913.,3.8990011215
703933.,-40.4768562317,703933.,-0.4340863824,703933.,3.7126705647
703953.,-41.1263580322,703953.,-0.6319076419,703953.,3.9674096107
703973.,-40.5710144043,703973.,-0.9059447050,703973.,3.9104297161
703993.,-39.9706916809,703993.,-1.3178950548,703993.,3.8700916767
704013.,-38.8257141113,704013.,-1.4568040371,704013.,3.6606454849
704033.,-37.7628364563,704033.,-1.5006862879,704033.,3.6678631306
704053.,-36.4727516174,704053.,-1.4020413160,704053.,3.7731692791
704073.,-35.1059875488,704073.,-1.60389781,704073.,3.014518261
704093.,-32.7735023499,704093.,-1.5675033331,704093.,3.5217900276
704113.,-30.9214916229,704113.,-1.3551135063,704113.,2.8199522495
704133.,-27.5037059784,704133.,-1.3924392462,704133.,2.702293396
704153.,-25.3187484741,704153.,-1.4213325977,704153.,2.5100800991
704173.,-22.8021850586,704173.,-0.8121432066,704173.,2.1778600216
704193.,-19.9790172577,704193.,-0.5477727056,704193.,1.8654378653
704213.,-16.0454826355,704213.,-0.7687662244,704213.,1.5312557220
704233.,-12.2681522369,704233.,-0.8961008787,704233.,1.5575404167
704253.,-9.9390897751,704253.,-0.6208202839,704253.,0.6931260824
704273.,-5.5028204918,704273.,-0.9281539321,704273.,1.0408642292
704293.,-2.5254979134,704293.,-0.8806537986,704293.,0.1990924478
704313.,0.6963923573,704313.,-1.0917154551,704313.,-0.1697523892
704333.,4.4206118584,704333.,-0.7461285591,704333.,-0.2461850643
704353.,8.0322465897,704353.,-0.8049099445,704353.,-0.7572109103
704373.,12.1716508865,704373.,-1.2400351763,704373.,-1.1472457647
704393.,15.1830425262,704393.,-1.3735525608,704393.,-1.1560600996
704413.,18.5922126770,704413.,-1.1339592934,704413.,-1.7083371878
704433.,21.8135585785,704433.,-1.0477066040,704433.,-2.1284279823
704453.,24.5672092438,704453.,-1.0406428576,704453.,-1.8569785357
704473.,27.1569805145,704473.,-0.5889918804,704473.,-2.6874649525
704493.,30.0225048065,704493.,-0.2873438001,704493.,-2.5649540424
704513.,32.0306129456,704513.,-0.1569271833,704513.,-2.8545684814
704533.,34.0518074036,704533.,0.1163080856,704533.,-3.0224938393
704553.,36.4144744873,704553.,0.2139017284,704553.,-3.1862545013
704573.,37.5817108154,704573.,0.5746083856,704573.,-3.4765174389
704593.,38.8952484131,704593.,0.4181358218,704593.,-3.0627644062
704613.,39.8116226196,704613.,0.4099733829,704613.,-3.5428187847
704633.,40.5965881348,704633.,0.3714683056,704633.,-3.3346948624
704653.,41.0527458191,704653.,0.5907076597,704653.,-3.5077702999
704673.,40.8800735474,704673.,0.5016556978,704673.,-3.3023571968
704693.,40.4597244263,704693.,-0.0033514088,704693.,-3.3332591057
704713.,39.7671890259,704713.,-0.1175642684,704713.,-3.4450418949
704733.,39.1191558838,704733.,-0.0167969819,704733.,-3.4008021355
704753.,37.721321106,704753.,-0.0627565086,704753.,-2.9592180252
704773.,35.9086303711,704773.,0.0560169704,704773.,-2.9130792618
