gyro.x_x,gyro.x_y,gyro.y_x,gyro.y_y,gyro.z_x,gyro.z_y
621665.,4.1638169289,621665.,-32.9167442322,621665.,-2.4925019741
621685.,4.2329492569,621685.,-32.2981872559,621685.,-2.2350962162
621705.,4.3422737122,621705.,-31.0731582642,621705.,-2.3463702202
621725.,3.9122912884,621725.,-30.1736736298,621725.,-1.799610734
621745.,3.6063547134,621745.,-28.5444393158,621745.,-1.9246420860
621765.,3.2120447159,621765.,-26.5334587097,621765.,-1.6605463028
621785.,2.3016064167,621785.,-24.7452507019,621785.,-1.8089121580
621805.,1.6721206903,621805.,-22.5529842377,621805.,-1.7122298479
621825.,1.2397977114,621825.,-19.8308143616,621825.,-1.3522427082
621845.,0.7199940085,621845.,-17.3098850250,621845.,-1.1281918287
621865.,0.3155702353,621865.,-14.5260324478,621865.,-0.9713992476
621885.,0.1328769028,621885.,-11.6023721695,621885.,-0.677002728
621905.,0.0361893922,621905.,-8.5915575027,621905.,-0.5168886781
621925.,0.1718663573,621925.,-5.4869499207,621925.,-0.1376249492
621945.,0.4774061739,621945.,-2.1490199566,621945.,-0.0148166427
621965.,0.8642248511,621965.,0.7721444964,621965.,0.3912372887
621985.,1.1648111343,621985.,3.5430636406,621985.,0.5569897890
622005.,1.6988487244,622005.,7.1992921829,622005.,0.7494258285
622025.,1.9179378748,622025.,10.1266698837,622025.,0.8360069394
622045.,1.9611811638,622045.,13.1320142746,622045.,1.323553443
622065.,1.7296190262,622065.,15.8742609024,622065.,1.1605379581
622085.,1.3159576654,622085.,18.5186882019,622085.,1.2417572737
622105.,0.8436580300,622105.,21.1326313019,622105.,1.5054459572
622125.,-0.1046323404,622125.,23.4980506897,622125.,2.0041155815
622145.,-0.6534948945,622145.,25.1926269531,622145.,2.1533024311
622165.,-1.4970054626,622165.,27.4072551727,622165.,2.1902282238
622185.,-1.7492865324,622185.,28.8283443451,622185.,2.3288438320
622205.,-2.2730145454,622205.,30.4750270844,622205.,2.3976964951
622225.,-2.7772507668,622225.,31.5126762390,622225.,2.598710537
622245.,-2.8860232830,622245.,32.4248504639,622245.,2.9533455372
622265.,-2.6866466999,622265.,32.9269218445,622265.,2.7038805485
622285.,-2.2421500683,622285.,33.4464645386,622285.,2.4076325893
622305.,-2.0237662792,622305.,33.4464607239,622305.,2.7456395626
622325.,-1.5284850597,622325.,33.0539131165,622325.,2.5912811756
622345.,-0.8129947782,622345.,32.2759361267,622345.,2.5166165829
622365.,-0.4269080162,622365.,31.3636455536,622365.,2.4360442162
622385.,-0.1597086340,622385.,30.1451396942,622385.,2.2345080376
622405.,0.0514357761,622405.,28.6268520355,622405.,2.2886683941
622425.,-0.1240790263,622425.,27.0413627625,622425.,2.0952165127
622445.,0.0794512257,622445.,25.2417545319,622445.,1.8649512529
622465.,-0.4670420587,622465.,22.8750190735,622465.,1.6212331057
622485.,-0.8979712129,622485.,20.6657180786,622485.,1.5879327059
622505.,-1.0645042658,622505.,18.3296890259,622505.,0.9708780646
622525.,-1.8152290583,622525.,15.1225471497,622525.,1.1138136387
622545.,-2.3356778622,622545.,12.4072027206,622545.,1.0766761303
622565.,-2.4403448105,622565.,9.518573761,622565.,0.5854396224
622585.,-2.8530185223,622585.,6.4005374908,622585.,0.6145088673
622605.,-2.4555859566,622605.,3.2372202873,622605.,0.3319680393
622625.,-2.1497197151,622625.,0.1693155318,622625.,0.2553925216
622645.,-1.8221101761,622645.,-2.9636218548,622645.,0.1915836334
622665.,-1.1585814953,622665.,-5.6645116806,622665.,-0.1092755646
622685.,-0.5452650785,622685.,-8.8490352631,622685.,-0.6215749979
622705.,0.161076054,622705.,-11.7666349411,622705.,-0.682823658
622725.,0.7438097000,622725.,-14.7830371857,622725.,-0.7449400425
622745.,1.3810917139,622745.,-17.336889267,622745.,-1.0487159491
622765.,1.9118758440,622765.,-19.9138507843,622765.,-1.1845439672
622785.,1.8133161068,622785.,-22.3222560883,622785.,-1.198084116
622805.,2.0404243469,622805.,-24.3158740997,622805.,-1.5119360685
622825.,1.977226615,622825.,-26.5588321686,622825.,-1.4677011967
622845.,1.4916511774,622845.,-28.2696056366,622845.,-1.6313869953
622865.,1.2305001020,622865.,-29.9803676605,622865.,-1.4089868069
622885.,0.766458869,622885.,-31.0879116058,622885.,-1.7718026638
622905.,0.6480836272,622905.,-31.7745666504,622905.,-1.901139617
622925.,0.4205132425,622925.,-32.6424217224,622925.,-2.0549960136
622945.,0.3786476552,622945.,-32.7628898621,622945.,-2.0775873661
622965.,0.6584343910,622965.,-33.0428314209,622965.,-2.1145551205
622985.,1.0144052505,622985.,-32.9076042175,622985.,-2.0587153435
623005.,1.3587099314,623005.,-32.1812362671,623005.,-2.2937772274
623025.,1.8077330589,623025.,-31.4065341949,623025.,-2.1428060532
623045.,2.2458906174,623045.,-30.1068840027,623045.,-2.3037824631
623065.,2.7420430183,623065.,-28.9630393982,623065.,-1.6984145641
623085.,3.2561967373,623085.,-27.1229934692,623085.,-1.6370935440
623105.,3.5496890545,623105.,-25.602142334,623105.,-1.6831080914
623125.,3.9376795292,623125.,-23.1431198120,623125.,-1.6636929512
623145.,4.0347862244,623145.,-21.2136917114,623145.,-1.3389357328
623165.,3.6129918098,623165.,-18.5813369751,623165.,-1.3065537214
623185.,3.3261249065,623185.,-16.0512638092,623185.,-1.3015520573
623205.,2.9538598061,623205.,-13.1390380859,623205.,-0.8200160265
623225.,1.9088265896,623225.,-10.1024599075,623225.,-0.484998554
623245.,1.2461204529,623245.,-7.335208416,623245.,-0.6346856356
623265.,1.0522500277,623265.,-4.3892092705,623265.,-0.26132828
623285.,0.4692879021,623285.,-1.1157605648,623285.,-0.0967748016
623305.,-0.0187755954,623305.,2.2619774342,623305.,0.3681072593
623325.,-1.0015197992,623325.,4.9648036957,623325.,0.412493825
623345.,-1.3232045174,623345.,8.0444383621,623345.,0.4545604885
623365.,-0.2300457805,623365.,11.1163892746,623365.,0.8161458969
623385.,0.5346412659,623385.,14.3312969208,623385.,0.7160977721
623405.,0.1649258584,623405.,16.4032230377,623405.,1.2476350069
623425.,1.190019846,623425.,18.7714099884,623425.,1.3960835934
623445.,1.0715178251,623445.,21.5401668549,623445.,1.8534543514
623465.,1.3567783833,623465.,23.4465408325,623465.,1.9082225561
623485.,1.2233302593,623485.,25.6461143494,623485.,1.9610310793
623505.,0.7347054482,623505.,27.4708080292,623505.,2.0451531410
623525.,0.8278768063,623525.,29.0036945343,623525.,2.2430813313
623545.,0.6191774607,623545.,30.2242565155,623545.,2.1069686413
623565.,-0.2401918024,623565.,30.9707145691,623565.,2.2601304054
623585.,-0.6792992949,623585.,32.1240272522,623585.,2.3191785812
623605.,-1.1699665785,623605.,32.7466392517,623605.,2.7089183331
623625.,-1.7586151361,623625.,32.6069335938,623625.,2.4838049412
623645.,-2.6704761982,623645.,32.5148239136,623645.,2.687125206
623665.,-2.7000658512,623665.,32.1254844666,623665.,2.7117745876
623685.,-2.3554782867,623685.,31.2088928223,623685.,2.5031328201
623705.,-2.4462170601,623705.,30.091835022,623705.,2.3558840752
623725.,-2.5088009834,623725.,29.1357402802,623725.,2.0564279556
623745.,-1.4563466311,623745.,27.8656463623,623745.,2.0385499001
623765.,-1.4102263451,623765.,25.9220676422,623765.,2.1697902679
623785.,-1.2056878805,623785.,23.8149299622,623785.,1.8643577099
623805.,-0.6580682397,623805.,21.7804355621,623805.,1.6351946592
623825.,-0.2871077359,623825.,19.2222080231,623825.,1.2661440372
623845.,-0.0786888748,623845.,16.8491172791,623845.,1.2535550594
623865.,0.0312746316,623865.,13.9176816940,623865.,0.9005432129
623885.,-0.2860094011,623885.,10.9571266174,623885.,0.8425691724
623905.,-0.5357838869,623905.,8.1523017883,623905.,0.5145536661
623925.,-0.6234601140,623925.,5.31305933,623925.,0.3632604778
623945.,-0.9614136219,623945.,2.0700194836,623945.,0.4300191700
623965.,-1.5124877691,623965.,-0.8670834303,623965.,0.2483206391
623985.,-2.0017392635,623985.,-4.1738967896,623985.,0.0380057059
624005.,-2.1763956547,624005.,-6.8685102463,624005.,-0.2954249978
624025.,-2.0230522156,624025.,-10.1027297974,624025.,-0.2061631531
624045.,-2.2214245796,624045.,-12.9698629379,624045.,-0.5366962552
624065.,-2.0390753746,624065.,-15.2841539383,624065.,-0.7024281025
624085.,-1.5188281536,624085.,-18.1205997467,624085.,-1.2565604448
624105.,-0.9693315625,624105.,-20.6344203949,624105.,-1.1125299931
624125.,-0.5827636123,624125.,-22.9250431061,624125.,-1.3658089638
624145.,-0.0102662565,624145.,-24.9455413818,624145.,-1.5560135841
624165.,0.6955818534,624165.,-26.8542308807,624165.,-1.7580597401
624185.,1.4492882490,624185.,-28.3606357574,624185.,-1.7836836576
624205.,1.6026391983,624205.,-29.5204200745,624205.,-1.8729207516
624225.,2.2763755322,624225.,-30.6786537170,624225.,-1.9943199158
624245.,2.3215155602,624245.,-31.5378074646,624245.,-2.0671787262
624265.,1.8948694468,624265.,-32.19480896,624265.,-2.2880420685
624285.,1.8770604134,624285.,-32.4134292603,624285.,-1.8841298819
624305.,1.5633987188,624305.,-32.4469795227,624305.,-1.9723106623
624325.,1.3846884966,624325.,-31.8676204681,624325.,-1.7521570921
624345.,1.2093569040,624345.,-31.3264541626,624345.,-1.9890564680
624365.,0.7447476387,624365.,-30.3972568512,624365.,-1.9329673052
624385.,0.8082194328,624385.,-29.1079521179,624385.,-1.9110291004
624405.,0.6229846478,624405.,-27.4238567352,624405.,-1.7740775347
624425.,0.9139714837,624425.,-26.0751399994,624425.,-1.5063328743
624445.,1.0829267502,624445.,-23.9423904419,624445.,-1.4715528488
624465.,1.5321626663,624465.,-22.0156230927,624465.,-1.4619394541
624485.,1.9023894072,624485.,-19.6251983643,624485.,-1.2855280638
624505.,2.2694075108,624505.,-17.1261692047,624505.,-1.2227886915
624525.,2.7855098248,624525.,-14.4017333984,624525.,-1.1538164616
624545.,3.0433881283,624545.,-11.6161670685,624545.,-0.6263073087
624565.,3.1254622936,624565.,-8.6434621811,624565.,-0.7403756976
624585.,3.2092294693,624585.,-5.8397755623,624585.,-0.5101422071
624605.,3.3038873672,624605.,-3.022695303,624605.,-0.1558880955
624625.,2.6872541904,624625.,-0.1305762827,624625.,-0.2357218415
624645.,2.0631325245,624645.,3.2495567799,624645.,0.3082031608
624665.,1.6096946001,624665.,6.2180991173,624665.,0.423306793
624685.,1.3382339478,624685.,9.0441989899,624685.,0.506077528
624705.,0.6831932068,624705.,11.8511285782,624705.,0.6375669837
624725.,0.3900789320,624725.,14.5960874557,624725.,1.238863349
624745.,-0.1647131294,624745.,17.5572242737,624745.,1.1922197342
624765.,-0.3429637551,624765.,19.7588996887,624765.,1.6068249941
624785.,-0.1869727522,624785.,22.012752533,624785.,1.6854875088
624805.,-0.3532629013,624805.,24.0315418243,624805.,1.9277080297
624825.,-0.1225624382,624825.,25.9885730743,624825.,2.1246154308
624845.,0.3815193474,624845.,27.6714763641,624845.,1.97184515
624865.,0.4286674559,624865.,29.1015167236,624865.,2.4206082821
624885.,1.1496884823,624885.,30.3118877411,624885.,2.3668482304
624905.,1.3646560907,624905.,31.3048381805,624905.,2.3061783314
624925.,1.0729668140,624925.,31.3583259583,624925.,2.2840039730
624945.,1.0125540495,624945.,32.0128288269,624945.,2.4129879475
624965.,0.9216119647,624965.,32.0797233582,624965.,2.3235468864
624985.,0.7861326337,624985.,31.8128204346,624985.,2.2189557552
625005.,0.2495087534,625005.,31.1955375671,625005.,2.4523019791
625025.,-0.2436624467,625025.,30.2772960663,625025.,2.4557733536
625045.,-0.7929633856,625045.,29.2420654297,625045.,2.2810356617
625065.,-1.2269681692,625065.,28.1509780884,625065.,2.1054713726
625085.,-1.8872441053,625085.,26.4209327698,625085.,1.9733853340
625105.,-2.2246618271,625105.,24.3509922028,625105.,1.6716907024
625125.,-2.3753402233,625125.,22.7852363586,625125.,1.8773622513
625145.,-2.1802947521,625145.,20.2560882568,625145.,1.7347992659
625165.,-2.0773375034,625165.,17.7350921631,625165.,1.3455766439
625185.,-1.8192586899,625185.,15.5010623932,625185.,1.1988190413
625205.,-1.6256116629,625205.,12.5879211426,625205.,0.9617682695
625225.,-1.1725088358,625225.,9.9478559494,625225.,0.7996943593
625245.,-0.8849641085,625245.,7.0404787064,625245.,0.4142861962
625265.,-0.4382219315,625265.,3.8858246803,625265.,0.2834101021
625285.,-0.2702338994,625285.,1.0195039511,625285.,-0.0903092995
625305.,-0.1239423454,625305.,-2.0347840786,625305.,-0.1463215947
625325.,-0.1384683400,625325.,-4.8058824539,625325.,-0.0834473073
625345.,-0.3640317023,625345.,-8.2974081039,625345.,-0.3451209664
625365.,-0.5594393611,625365.,-10.7604188919,625365.,-0.6268350482
625385.,-1.0720205307,625385.,-13.7214889526,625385.,-0.6007761955
625405.,-1.4113953114,625405.,-16.1965904236,625405.,-1.1633374691
625425.,-1.7969138622,625425.,-18.9075641632,625425.,-1.0900486708
625445.,-1.8361011744,625445.,-21.2156906128,625445.,-1.3254472017
625465.,-1.9884471893,625465.,-23.5581836700,625465.,-1.5870076418
625485.,-1.6745012999,625485.,-25.3257541656,625485.,-1.5651905537
625505.,-1.3545975685,625505.,-27.1438865662,625505.,-1.5126048326
625525.,-0.7715602517,625525.,-28.3426475525,625525.,-1.5827685595
625545.,-0.6207173467,625545.,-29.4206218719,625545.,-1.9908354282
625565.,0.0008958337,625565.,-30.5211791992,625565.,-1.9829620123
625585.,0.5060106516,625585.,-31.3011646271,625585.,-1.7694982290
625605.,1.1718719006,625605.,-31.7707138062,625605.,-1.8875747919
625625.,1.3703585863,625625.,-31.8781642914,625625.,-1.9289445877
625645.,2.0702729225,625645.,-31.4243240356,625645.,-2.0787186623
625665.,2.0999000072,625665.,-30.7464714050,625665.,-2.1723976135
625685.,2.2819540501,625685.,-30.2931156158,625685.,-1.7254736423
625705.,2.2023928165,625705.,-29.2703208923,625705.,-1.7676383257
625725.,1.9520711899,625725.,-27.9037628174,625725.,-1.5772171021
625745.,1.6484296322,625745.,-26.6212425232,625745.,-1.6724593639
625765.,1.2795062065,625765.,-24.7401733398,625765.,-1.2768075466
625785.,1.1547499895,625785.,-23.0075492859,625785.,-1.4761240482
625805.,0.8196696043,625805.,-20.6489868164,625805.,-1.3960595131
625825.,0.6019586325,625825.,-18.1200561523,625825.,-1.0452879667
625845.,0.6286761165,625845.,-15.7689371109,625845.,-0.8775525689
625865.,0.4216259122,625865.,-13.1192293167,625865.,-0.6921280026
625885.,0.7588236332,625885.,-10.5755472183,625885.,-0.5757516623
625905.,1.1988031864,625905.,-7.5839977264,625905.,-0.7362210751
625925.,1.4692784548,625925.,-4.4415960312,625925.,-0.4984530807
625945.,2.0489296913,625945.,-1.840118289,625945.,-0.0830050036
625965.,2.1737051010,625965.,1.297768116,625965.,0.2491310537
625985.,2.599542141,625985.,4.2805609703,625985.,0.3636118472
626005.,2.8521504402,626005.,7.2063875198,626005.,0.3296501935
626025.,2.7139058113,626025.,10.2599420547,626025.,0.8007179499
626045.,2.4310727119,626045.,13.185172081,626045.,0.8646696806
626065.,2.4832258224,626065.,15.6800489426,626065.,1.2556655407
626085.,2.1619884968,626085.,18.3619956970,626085.,1.3072416782
626105.,1.5515891314,626105.,20.5132141113,626105.,1.5321258307
626125.,1.0140235424,626125.,22.2355804443,626125.,1.7810087204
626145.,0.6922481656,626145.,24.7772712708,626145.,1.8684259653
626165.,0.2076969743,626165.,26.3230075836,626165.,1.9236094952
626185.,-0.0726137459,626185.,27.8670406342,626185.,2.0992896557
626205.,-0.177081883,626205.,29.2595920563,626205.,2.1499509811
626225.,-0.3014365137,626225.,30.3076190948,626225.,2.4994678497
626245.,0.0086612031,626245.,30.9334335327,626245.,2.5210900307
626265.,0.0767972246,626265.,31.3341312408,626265.,2.2858657837
626285.,0.3653397858,626285.,31.3943920135,626285.,2.5012266636
626305.,0.5307537317,626305.,31.4156341553,626305.,2.5812354088
626325.,0.7637172341,626325.,31.1415348053,626325.,2.0949981213
626345.,1.0536398888,626345.,30.3832321167,626345.,2.238255024
626365.,1.2625491619,626365.,29.5451507568,626365.,2.1934449673
626385.,1.1392409801,626385.,28.5818958282,626385.,2.0833268166
626405.,0.9212848544,626405.,26.7928886414,626405.,2.1947994232
626425.,0.9293420315,626425.,25.2336711884,626425.,1.7427873611
626445.,0.4404525459,626445.,23.1495208740,626445.,1.8739210367
626465.,-0.0647718906,626465.,21.3003749847,626465.,1.7200471163
626485.,-1.2105438709,626485.,18.9826641083,626485.,1.6954163313
626505.,-1.4012663364,626505.,16.8413562775,626505.,1.4265937805
626525.,-1.0485360622,626525.,13.827167511,626525.,1.3517936468
626545.,-2.1411414146,626545.,11.3710441589,626545.,0.9302657843
626565.,-3.1880600452,626565.,8.4698352814,626565.,0.6151837111
626585.,-1.4351246357,626585.,5.5915188789,626585.,0.7367131114
626605.,-2.1891875267,626605.,2.4338991642,626605.,0.3806205988
626625.,-1.7143961191,626625.,-0.3896258771,626625.,0.1631239504
626645.,-1.5380253792,626645.,-3.3222177029,626645.,-0.1301511377
626665.,-1.3371516466,626665.,-6.3665142059,626665.,-0.285417527
626685.,-0.5325483084,626685.,-9.2787637711,626685.,-0.2960296571
626705.,-0.0124739921,626705.,-12.2833061218,626705.,-0.7353848219
626725.,-0.0737898499,626725.,-14.7597904205,626725.,-0.9358651042
626745.,-0.2045270652,626745.,-17.4295673370,626745.,-1.1628961563
626765.,-0.3003772497,626765.,-19.4501743317,626765.,-1.2512192726
626785.,0.0895674601,626785.,-21.6117420197,626785.,-1.4336974621
626805.,-0.2916353345,626805.,-24.3201923370,626805.,-1.5491017103
626825.,-0.7958765626,626825.,-25.6797885895,626825.,-1.453386426
626845.,-1.4270579815,626845.,-27.1700000763,626845.,-1.5753536224
626865.,-1.5567913055,626865.,-28.6053085327,626865.,-1.8376749754
626885.,-1.6661094427,626885.,-30.3874320984,626885.,-1.7780839205
626905.,-1.5078667402,626905.,-30.2393112183,626905.,-1.9256824255
626925.,-1.8537096977,626925.,-30.787065506,626925.,-1.7911157608
626945.,-1.3666108847,626945.,-31.1998233795,626945.,-1.8257325888
626965.,-0.8786652088,626965.,-31.1271667480,626965.,-1.7292265892
626985.,-0.3591354787,626985.,-30.6464900970,626985.,-1.9783408642
627005.,0.0989724398,627005.,-30.3639831543,627005.,-1.8642648458
627025.,0.5918237567,627025.,-29.6851177216,627025.,-1.6036239862
627045.,1.050927043,627045.,-28.2455806732,627045.,-1.739954114
627065.,1.2949850559,627065.,-26.9846954346,627065.,-1.5692801476
627085.,1.9577549696,627085.,-25.5283946991,627085.,-1.7110043764
627105.,1.8363138437,627105.,-23.7385559082,627105.,-1.2274186611
627125.,2.1292560101,627125.,-21.7383232117,627125.,-1.2231216431
627145.,2.1499161720,627145.,-19.3845634460,627145.,-1.3609306812
627165.,1.6495307684,627165.,-17.1406040192,627165.,-1.0135726929
627185.,1.7136572599,627185.,-14.4153165817,627185.,-0.8715332150
627205.,1.2562910318,627205.,-11.9277639389,627205.,-0.4846552610
627225.,0.7114754915,627225.,-8.9724769592,627225.,-0.4127593338
627245.,0.5988056064,627245.,-6.1307797432,627245.,-0.3166029155
627265.,0.4392499328,627265.,-3.0827970505,627265.,-0.1211938635
627285.,0.4119635820,627285.,-0.2236022353,627285.,-0.177524969
627305.,0.2693550587,627305.,2.2636673450,627305.,0.1264404953
627325.,0.5857867599,627325.,5.3685355186,627325.,0.5380305052
627345.,0.8979157805,627345.,8.4464273453,627345.,0.6100999117
627365.,1.1888049841,627365.,11.1135864258,627365.,0.9332973361
627385.,1.5202102661,627385.,13.9187469482,627385.,1.1028616428
627405.,1.9057887793,627405.,16.6135749817,627405.,0.9419190884
627425.,1.972255826,627425.,18.8428382874,627425.,1.3782674074
627445.,2.1460499763,627445.,20.9670009613,627445.,1.3492405415
627465.,2.1892406940,627465.,22.9709339142,627465.,1.5474436283
627485.,2.4559206963,627485.,25.0447502136,627485.,1.6939388514
627505.,2.2078256607,627505.,26.4484348297,627505.,1.7558339834
627525.,2.0198702812,627525.,28.1307888031,627525.,2.1437175274
627545.,1.4121552706,627545.,29.1372833252,627545.,1.9953075647
627565.,1.2325029373,627565.,29.9856033325,627565.,2.1640915871
627585.,0.7596810460,627585.,30.8801822662,627585.,2.3448209763
627605.,0.5632649064,627605.,31.1237545013,627605.,2.2909634113
627625.,0.3075466156,627625.,31.0778865814,627625.,2.5547862053
627645.,-0.2490023673,627645.,30.8141326904,627645.,2.555598259
627665.,-0.1437718719,627665.,30.4190940857,627665.,2.1534914970
627685.,0.0812684521,627685.,29.4966259003,627685.,2.1022465229
627705.,0.0917525962,627705.,28.4616565704,627705.,2.1289045811
627725.,0.3401727080,627725.,27.3355484009,627725.,1.959738493
627745.,0.4638109207,627745.,25.8166294098,627745.,1.9715529680
627765.,0.757616818,627765.,23.9783573151,627765.,1.659383297
627785.,1.3218868971,627785.,22.1891059875,627785.,1.7804412842
627805.,0.6847409606,627805.,20.1023826599,627805.,1.4435586929
627825.,1.1093226671,627825.,17.5289249420,627825.,1.5334116220
627845.,0.8233366013,627845.,15.2807598114,627845.,1.0432248116
627865.,0.5998749137,627865.,12.5416860580,627865.,1.0063985586
627885.,0.3438417315,627885.,9.8482446671,627885.,0.8226479888
627905.,-0.2774592638,627905.,6.9033842087,627905.,0.4334872663
627925.,-0.5984407663,627925.,4.2172341347,627925.,0.6041617393
627945.,-1.1930147409,627945.,1.0635858774,627945.,0.4847812355
627965.,-1.3870155811,627965.,-1.6317726374,627965.,0.2201093286
627985.,-1.6416831017,627985.,-4.6713356972,627985.,0.0969500318
628005.,-1.8946418762,628005.,-7.6437530518,628005.,-0.2936878800
628025.,-2.0427684784,628025.,-10.2097549438,628025.,-0.4210209548
628045.,-1.8459240198,628045.,-12.8592529297,628045.,-0.8452218175
628065.,-1.7193454504,628065.,-15.7548274994,628065.,-0.8748582602
628085.,-1.3455383778,628085.,-18.1689701080,628085.,-1.1261070967
628105.,-0.9817996025,628105.,-20.3952007294,628105.,-1.0522149801
628125.,-0.3932181597,628125.,-22.3538360596,628125.,-1.3247823715
628145.,-0.3939287663,628145.,-24.1534729004,628145.,-1.3287593126
628165.,-0.0517871678,628165.,-25.6672267914,628165.,-1.5710529089
628185.,0.1082101464,628185.,-27.0821647644,628185.,-1.8366513252
628205.,0.0721475929,628205.,-28.5833339691,628205.,-1.8637878895
628225.,0.1505095363,628225.,-29.4404258728,628225.,-1.6705031395
628245.,-0.0629540160,628245.,-30.2649345398,628245.,-1.8893499374
628265.,-0.1526794285,628265.,-30.6369552612,628265.,-1.7213512659
628285.,-0.6925076842,628285.,-30.3685016632,628285.,-1.7247253656
628305.,-0.8848538399,628305.,-30.6022529602,628305.,-2.0341825485
628325.,-0.8823543787,628325.,-30.2493515015,628325.,-1.7879365683
628345.,-0.9765052795,628345.,-29.7953720093,628345.,-1.7494487762
628365.,-1.2359675169,628365.,-28.7267150879,628365.,-1.5553642511
628385.,-0.7908126712,628385.,-27.5009994507,628385.,-1.5928231478
628405.,-0.6489984393,628405.,-26.1859493256,628405.,-1.4244126081
628425.,-0.2458438873,628425.,-24.2350463867,628425.,-1.2797874212
628445.,0.1771944314,628445.,-22.5092525482,628445.,-1.3097726107
628465.,0.4015182257,628465.,-20.4756278992,628465.,-1.0888514519
628485.,0.8088286519,628485.,-18.2025566101,628485.,-0.9462957382
628505.,1.4379825592,628505.,-15.7627296448,628505.,-0.8020989299
628525.,1.4359918833,628525.,-12.9141464233,628525.,-0.6219771504
628545.,1.3358975649,628545.,-10.4609107971,628545.,-0.4118697345
628565.,1.5324898958,628565.,-7.6471180916,628565.,-0.5390799046
628585.,1.5371348858,628585.,-4.7060976028,628585.,-0.4580082297
628605.,1.4954602718,628605.,-2.4219663143,628605.,-0.0752680302
628625.,1.0791559219,628625.,1.2105782032,628625.,-0.1463554502
628645.,0.9742845297,628645.,3.5003302097,628645.,0.3389273882
628665.,0.3823999166,628665.,6.6055064201,628665.,0.8246394396
628685.,0.2292663157,628685.,9.3423881531,628685.,0.7875703573
628705.,0.2293917835,628705.,12.0452604294,628705.,1.0429847240
628725.,0.4276885688,628725.,14.9391012192,628725.,1.1753253937
628745.,0.1296473593,628745.,17.0481529236,628745.,1.6626669168
628765.,0.5161729455,628765.,19.3869819641,628765.,1.3533473015
628785.,0.8020940423,628785.,21.3266677856,628785.,1.7539386749
628805.,1.1058267355,628805.,23.5747318268,628805.,1.6724089384
628825.,1.5589113235,628825.,25.2734355927,628825.,1.9558321238
628845.,1.9992412329,628845.,26.6510009766,628845.,1.9695817232
628865.,1.8518573046,628865.,28.1016426086,628865.,2.2048990726
628885.,2.3792455196,628885.,28.9344844818,628885.,1.9941445589
628905.,2.4834985733,628905.,29.7883338928,628905.,2.2384743690
628925.,2.3613843918,628925.,30.3097267151,628925.,1.9342398643
628945.,2.3551909924,628945.,30.6540164948,628945.,1.9990159273
628965.,2.1847696304,628965.,30.4745426178,628965.,2.3250117302
628985.,1.5932822227,628985.,29.8669681549,628985.,2.2073390484
629005.,1.6521843672,629005.,29.4636058807,629005.,2.089009285
629025.,0.9808107018,629025.,28.6942710876,629025.,2.1611168385
629045.,0.7488712668,629045.,27.5410938263,629045.,2.0623919964
629065.,0.4744883478,629065.,26.1338176727,629065.,2.0966515541
629085.,0.2784238756,629085.,24.5295333862,629085.,2.1011679173
629105.,0.0821500421,629105.,22.8499336243,629105.,1.7893816233
629125.,0.1281582266,629125.,20.8892478943,629125.,1.6478221416
629145.,0.0049557523,629145.,18.6122550964,629145.,1.3853456974
629165.,0.3203206360,629165.,16.3466320038,629165.,1.4923505783
629185.,0.4319540858,629185.,13.7244625092,629185.,1.2857813835
629205.,0.6701729298,629205.,11.0099000931,629205.,1.2760246992
629225.,0.9590722322,629225.,8.4050397873,629225.,0.7009414434
629245.,0.7205672860,629245.,5.7181706429,629245.,0.7071397305
629265.,0.6239731908,629265.,2.8360192776,629265.,0.4517929554
629285.,0.8826053739,629285.,0.0750834122,629285.,0.001926497
629305.,0.4402094185,629305.,-2.9263308048,629305.,0.2559926808
629325.,0.3375671208,629325.,-5.7077283859,629325.,-0.3856297433
629345.,-0.1298404038,629345.,-8.6285581589,629345.,-0.3969656825
629365.,-0.4900718033,629365.,-11.0984153748,629365.,-0.5427908897
629385.,-1.0930728912,629385.,-14.1591663361,629385.,-0.6462003589
629405.,-1.1691477299,629405.,-16.5568542480,629405.,-0.6641472578
629425.,-1.5871083736,629425.,-18.5175704956,629425.,-1.0861437321
629445.,-1.5626747608,629445.,-20.8790798187,629445.,-0.9386079907
629465.,-1.7817907333,629465.,-23.3108062744,629465.,-1.3105527163
629485.,-1.3985599279,629485.,-24.5714874268,629485.,-1.4458403587
629505.,-1.3298474550,629505.,-26.1078872681,629505.,-1.4048409462
629525.,-1.0726624727,629525.,-27.3082771301,629525.,-1.6888148785
629545.,-0.6336721182,629545.,-28.6475372314,629545.,-1.8012305498
629565.,-0.6225939989,629565.,-29.1785564423,629565.,-1.7892578840
629585.,-0.2699967027,629585.,-29.9760570526,629585.,-1.7452520132
629605.,-0.0593453944,629605.,-30.342748642,629605.,-1.742643714
629625.,0.197323367,629625.,-30.2181224823,629625.,-1.6492846012
629645.,0.0422623903,629645.,-29.9563007355,629645.,-1.9823958874
629665.,0.1310658008,629665.,-29.6446342468,629665.,-1.7448741198
629685.,-0.2961544096,629685.,-28.8355846405,629685.,-1.4550611973
629705.,0.1782562584,629705.,-27.7657814026,629705.,-1.5890362263
629725.,-1.2234015465,629725.,-26.0147838593,629725.,-1.3528407812
629745.,-1.2092856169,629745.,-25.1743106842,629745.,-1.0211031437
629765.,-2.0573112965,629765.,-23.0547733307,629765.,-1.2005007267
629785.,0.3728245497,629785.,-21.1091041565,629785.,-1.1752300262
629805.,-1.5899050236,629805.,-18.8609275818,629805.,-0.881400764
629825.,-0.7286257148,629825.,-16.6894226074,629825.,-0.6739997268
629845.,-0.8754178882,629845.,-14.5078134537,629845.,-0.6534189582
629865.,-0.2695860267,629865.,-11.8224954605,629865.,-0.5974485874
629885.,-0.5144945979,629885.,-8.8948240280,629885.,-0.2259060591
629905.,-0.0861314088,629905.,-6.5013327599,629905.,-0.123659201
629925.,0.2467046380,629925.,-3.6694788933,629925.,-0.1394533962
629945.,0.6778813004,629945.,-0.7804867029,629945.,0.4612384737
629965.,0.7438226342,629965.,2.4091365337,629965.,0.2538680434
629985.,1.2317372561,629985.,5.0794487,629985.,0.6064658761
630005.,1.4966830015,630005.,7.8750758171,630005.,0.6235345602
630025.,0.9131083488,630025.,10.9554128647,630025.,1.0060856342
630045.,0.6111643314,630045.,13.3200855255,630045.,1.2369033098
630065.,0.3757984638,630065.,15.7195434570,630065.,1.2376896143
630085.,0.427695483,630085.,18.1046657562,630085.,1.6786350012
630105.,0.8808053136,630105.,20.0148544312,630105.,1.3954696655
630125.,0.5963703394,630125.,22.3396759033,630125.,1.5697902441
630145.,0.7277708054,630145.,23.7576484680,630145.,1.6818854809
630165.,0.3332275748,630165.,25.4474048615,630165.,1.8545343876
630185.,-0.0888029262,630185.,27.0515708923,630185.,2.0950217247
630205.,0.4983071089,630205.,28.2380790710,630205.,2.0664315224
630225.,0.8818867803,630225.,28.9234142303,630225.,2.0971705914
630245.,1.3033609390,630245.,29.3615169525,630245.,2.4170351028
630265.,1.6086941957,630265.,29.8896732330,630265.,2.2670352459
630285.,1.9126465321,630285.,29.8962268829,630285.,2.1752648354
630305.,2.1036739349,630305.,29.8573188782,630305.,2.1557855606
630325.,2.2279839516,630325.,29.5710315704,630325.,2.1263563633
630345.,2.5696945190,630345.,28.652135849,630345.,2.1403462887
630365.,2.2524642944,630365.,27.940196991,630365.,2.1190438271
630385.,2.105547905,630385.,26.4120941162,630385.,1.9819164276
630405.,2.0597696304,630405.,25.2547473907,630405.,1.9405560493
630425.,1.7139515877,630425.,23.3705101013,630425.,1.9264544249
630445.,1.3520585299,630445.,21.4919986725,630445.,1.7107288837
630465.,1.1226512194,630465.,19.4092388153,630465.,1.3544118404
630485.,0.6890528202,630485.,17.0936794281,630485.,1.3826977015
630505.,0.4758035541,630505.,14.9647092819,630505.,1.2000467777
630525.,0.2008836567,630525.,12.3449954987,630525.,1.449882865
630545.,0.0805542842,630545.,9.3986845016,630545.,1.0438497066
630565.,0.2213374674,630565.,6.7155847549,630565.,0.7148984671
630585.,-0.0347421952,630585.,4.5261936188,630585.,0.5800825953
630605.,0.3913944066,630605.,1.6286740303,630605.,0.3971848786
630625.,0.5338106155,630625.,-1.3236368895,630625.,-0.2383635044
630645.,0.5716797113,630645.,-4.0340361595,630645.,-0.1580627561
630665.,0.7973782420,630665.,-7.2127013206,630665.,-0.2463446558
630685.,0.9986703992,630685.,-9.5486326218,630685.,-0.3826763928
630705.,0.9021223783,630705.,-12.5542430878,630705.,-0.7186374664
630725.,0.6062882543,630725.,-14.6718130112,630725.,-0.8430685997
630745.,0.6597947478,630745.,-17.0114059448,630745.,-1.008089304
630765.,0.2740981579,630765.,-19.4270267487,630765.,-1.3813123703
630785.,-0.106863983,630785.,-21.3166179657,630785.,-1.2898523808
630805.,-0.5026819706,630805.,-23.5126342773,630805.,-1.3754475117
630825.,-0.5813144445,630825.,-25.1082725525,630825.,-1.5538232327
630845.,-0.8030215502,630845.,-26.4857234955,630845.,-1.6223928928
630865.,-0.8269948363,630865.,-27.5027542114,630865.,-1.5670050383
630885.,-1.2818241119,630885.,-28.6460132599,630885.,-1.381628871
630905.,-1.4093948603,630905.,-29.1798362732,630905.,-1.6313304901
630925.,-1.3130049706,630925.,-29.7024612427,630925.,-1.6925196648
630945.,-1.0842726231,630945.,-29.8660411835,630945.,-1.8874768019
630965.,-0.9596292377,630965.,-29.7216014862,630965.,-1.5211949348
630985.,-0.5683599114,630985.,-29.2842159271,630985.,-1.9163330793
631005.,-0.5076653957,631005.,-28.8272380829,631005.,-1.6525737047
631025.,-0.2250056714,631025.,-27.9200267792,631025.,-1.5897779465
631045.,-0.2511097789,631045.,-26.5370807648,631045.,-1.2450938225
631065.,0.0363627784,631065.,-25.2016048431,631065.,-1.745002389
631085.,-0.0762595832,631085.,-23.7582569122,631085.,-1.1387189627
631105.,0.0004093555,631105.,-21.892742157,631105.,-1.1914323568
631125.,-0.2991543412,631125.,-20.1014728546,631125.,-1.0587488413
631145.,-0.5139995813,631145.,-17.8126773834,631145.,-0.9240902662
631165.,-0.7187857032,631165.,-15.6956806183,631165.,-0.5704037547
631185.,-0.8292821646,631185.,-12.8776931763,631185.,-0.4649808705
631205.,-1.2455668449,631205.,-10.4899482727,631205.,-0.2471245825
631225.,-1.0936415195,631225.,-7.6712017059,631225.,-0.1557745934
631245.,-1.2683905363,631245.,-5.0869503021,631245.,-0.0539942905
631265.,-1.2709813118,631265.,-2.3265297413,631265.,0.3061746955
631285.,-1.0116934776,631285.,0.5623154044,631285.,0.4741531312
631305.,-0.8238635063,631305.,3.1314079762,631305.,0.6597050428
631325.,-0.4436323643,631325.,6.2044763565,631325.,0.5891587138
631345.,-0.1513185799,631345.,8.6884040833,631345.,0.9344150424
631365.,0.0690269917,631365.,11.1945381165,631365.,1.2466423512
631385.,0.5258776546,631385.,13.8878841400,631385.,1.5270119905
631405.,0.6975920796,631405.,16.3635768890,631405.,1.5588592291
631425.,0.8750330806,631425.,18.3972187042,631425.,1.5937570333
631445.,1.1072790623,631445.,20.8030357361,631445.,1.5201312304
631465.,1.0474088192,631465.,22.8234043121,631465.,1.7782062292
631485.,1.0902206898,631485.,24.2818164825,631485.,1.7474671602
631505.,0.9145491123,631505.,25.8280296326,631505.,2.1137812138
631525.,0.9786573052,631525.,27.1293525696,631525.,2.0283265114
631545.,0.7301644683,631545.,28.1708545685,631545.,2.0380206108
631565.,0.6725814342,631565.,28.9618453979,631565.,2.1343080997
631585.,0.6322601438,631585.,29.2104721069,631585.,2.3442995548
631605.,0.7059038877,631605.,29.4159545898,631605.,2.0841619968
631625.,0.7068327665,631625.,29.3705959320,631625.,2.2714629173
631645.,0.9830748439,631645.,29.3253936768,631645.,2.2723522186
631665.,1.0542063713,631665.,28.8974075317,631665.,1.9600758553
631685.,1.3712494373,631685.,27.9667358398,631685.,2.403847456
631705.,1.5567084551,631705.,26.7482585907,631705.,2.1396763325
631725.,1.7929176092,631725.,25.802148819,631725.,2.0345482826
631745.,2.1585695744,631745.,24.162021637,631745.,1.7549980879
631765.,2.4348649979,631765.,22.2930126190,631765.,1.8159208298
631785.,2.3425323963,631785.,20.2584342957,631785.,1.5239419937
631805.,2.1957697868,631805.,18.3003482819,631805.,1.2147811651
631825.,2.215944767,631825.,15.9600982666,631825.,1.5954675674
631845.,2.2486028671,631845.,13.6676416397,631845.,1.0236209631
631865.,1.6900100708,631865.,11.1185922623,631865.,1.1209858656
631885.,1.4720629454,631885.,8.4007940292,631885.,0.8207523227
631905.,1.0267487764,631905.,5.8060131073,631905.,0.8728895187
631925.,0.6633230448,631925.,2.8604001999,631925.,0.6130216718
631945.,0.5851843357,631945.,0.2224772274,631945.,0.413025111
631965.,0.2841606140,631965.,-2.7565073967,631965.,0.1969031096
631985.,0.2243291736,631985.,-5.4339165688,631985.,0.0098879831
632005.,0.2069259286,632005.,-8.2176399231,632005.,-0.3004836738
632025.,0.3179621994,632025.,-10.8555727005,632025.,-0.4677840173
632045.,0.6232629418,632045.,-13.4356946945,632045.,-0.8650589585
632065.,0.6189696193,632065.,-15.6826038361,632065.,-0.6617461443
632085.,0.7408396006,632085.,-17.9314289093,632085.,-1.1112987995
632105.,0.8693288565,632105.,-19.9996147156,632105.,-1.0099334717
632125.,1.006046176,632125.,-21.7937545776,632125.,-1.2085986137
632145.,0.7972010970,632145.,-23.742181778,632145.,-1.1856068373
632165.,0.8488804102,632165.,-25.3702430725,632165.,-1.5506087542
632185.,0.4274865091,632185.,-26.5549125671,632185.,-1.3142973185
632205.,0.485337168,632205.,-27.7664699554,632205.,-1.5046963692
632225.,-0.0221552830,632225.,-28.1378479004,632225.,-1.6282603741
632245.,-0.0763139576,632245.,-29.1940937042,632245.,-1.7378484011
632265.,-0.4920538664,632265.,-29.2107162476,632265.,-1.4964731932
632285.,-0.6922137737,632285.,-29.1387233734,632285.,-1.8299466372
632305.,-1.0856485367,632305.,-29.0081386566,632305.,-1.6016356945
632325.,-1.1357926130,632325.,-28.7003688812,632325.,-1.6248642206
632345.,-1.1778330803,632345.,-27.9262809753,632345.,-1.5033348799
632365.,-1.2311058044,632365.,-27.0201931,632365.,-1.6687289476
632385.,-1.0046589375,632385.,-25.4110012054,632385.,-1.4522573948
632405.,-0.946100235,632405.,-24.4063663483,632405.,-1.2514209747
632425.,-0.7771660089,632425.,-22.6645832062,632425.,-1.3401772976
632445.,-0.3927635550,632445.,-20.8736114502,632445.,-0.7608081102
632465.,-0.4709599316,632465.,-18.5193481445,632465.,-0.9074614048
632485.,-0.1888460368,632485.,-16.5090332031,632485.,-0.6248811483
632505.,-0.2251378894,632505.,-13.9451103210,632505.,-0.3922336102
632525.,-0.2952178717,632525.,-11.7621335983,632525.,-0.3916791677
632545.,-0.2890219390,632545.,-8.7849130630,632545.,-0.0320902541
632565.,-0.7205266356,632565.,-6.6733384132,632565.,-0.2477355450
632585.,-0.5094950199,632585.,-3.6432702541,632585.,0.0167261809
632605.,-0.8405238986,632605.,-0.9128999710,632605.,0.3638210595
632625.,-1.1169166565,632625.,1.911872983,632625.,0.3469181657
632645.,-1.1053855419,632645.,4.4610490799,632645.,0.9772177935
632665.,-1.4266690016,632665.,7.0919160843,632665.,0.8840960860
632685.,-1.3162571192,632685.,9.7513856888,632685.,0.9847952127
632705.,-1.3089907169,632705.,12.1106090546,632705.,1.1731230021
632725.,-1.2147821188,632725.,14.6938562393,632725.,1.6197972298
632745.,-0.9648939371,632745.,16.9892921448,632745.,1.6945462227
632765.,-0.6317880154,632765.,19.3334045410,632765.,1.7531032562
632785.,-0.2304048091,632785.,21.4419918060,632785.,1.8121925592
632805.,0.1369768828,632805.,23.1515560150,632805.,1.6895931959
632825.,0.4801940918,632825.,24.881811142,632825.,1.7351081371
632845.,0.7980999947,632845.,26.0107307434,632845.,2.1610555649
632865.,0.9548965693,632865.,27.2582683563,632865.,1.9732573032
632885.,1.3216036558,632885.,27.9613685608,632885.,1.827221036
632905.,1.1768273115,632905.,28.8081645966,632905.,2.0123586655
632925.,0.478143394,632925.,29.1606788635,632925.,1.9300976992
632945.,1.3703359365,632945.,29.2878684998,632945.,2.1278328896
632965.,0.5751847029,632965.,29.2134742737,632965.,2.1368474960
632985.,0.7119933963,632985.,28.3943271637,632985.,2.2404563427
633005.,-0.0014661369,633005.,28.4490661621,633005.,2.0464971066
633025.,-0.3807410598,633025.,27.2907657623,633025.,2.1657855511
633045.,0.5633416772,633045.,25.5634288788,633045.,1.761530757
633065.,0.5320504308,633065.,24.5206356049,633065.,2.1391441822
633085.,0.5771952271,633085.,23.2391338348,633085.,1.8832273483
633105.,1.1598865986,633105.,21.0756435394,633105.,1.5816831589
633125.,1.0204077959,633125.,19.0656433105,633125.,1.9256248474
633145.,1.8800215721,633145.,17.0973987579,633145.,1.575953126
633165.,2.2418825626,633165.,15.0238733292,633165.,1.1095256805
633185.,1.6202099323,633185.,12.1556253433,633185.,1.1377928257
633205.,2.1889774799,633205.,9.7178277969,633205.,1.0592467785
633225.,1.9267593622,633225.,7.1973581314,633225.,0.7060058713
633245.,2.0122230053,633245.,4.5728507042,633245.,0.5725041032
633265.,2.4851176739,633265.,1.7428872585,633265.,0.3642012477
633285.,1.6992064714,633285.,-0.9364160299,633285.,0.2991019785
633305.,1.5895183086,633305.,-3.7339789867,633305.,0.2659578621
633325.,1.3664141893,633325.,-6.3651752472,633325.,-0.3092238307
633345.,0.7082929015,633345.,-9.1785049438,633345.,-0.3493366241
633365.,0.6471017599,633365.,-11.8175859451,633365.,-0.1471408904
633385.,0.7418006659,633385.,-14.1229133606,633385.,-0.5827374458
633405.,0.8991175294,633405.,-16.3934516907,633405.,-0.6690836549
633425.,0.9157200456,633425.,-18.5833873749,633425.,-1.0916800499
633445.,0.3864770234,633445.,-20.5361976624,633445.,-1.1250042915
633465.,0.5123996139,633465.,-22.2881736755,633465.,-1.337939024
633485.,0.5515637398,633485.,-24.0977516174,633485.,-1.4255342484
633505.,0.5259774923,633505.,-25.3935909271,633505.,-1.4236723185
633525.,0.7863273025,633525.,-26.5990295410,633525.,-1.7972406149
633545.,1.1443232298,633545.,-27.3905830383,633545.,-1.4496651888
633565.,1.2859950066,633565.,-28.1753997803,633565.,-1.8182407618
633585.,1.1712162495,633585.,-28.4187927246,633585.,-1.4883384705
633605.,0.8170500398,633605.,-28.8027877808,633605.,-1.4212790728
633625.,0.7016869783,633625.,-28.9184646606,633625.,-1.6816673279
633645.,0.2914792895,633645.,-28.3010292053,633645.,-1.6459929943
633665.,0.4021530449,633665.,-27.740978241,633665.,-1.5908563137
633685.,-0.1472287923,633685.,-27.1231365204,633685.,-1.6605783701
633705.,-0.4235750735,633705.,-26.0181427002,633705.,-1.4105263948
633725.,-0.6737335920,633725.,-24.5766963959,633725.,-1.4643638134
633745.,-0.9226548076,633745.,-23.2097091675,633745.,-1.1409387589
633765.,-1.1471120119,633765.,-21.4428234100,633765.,-1.0941410065
633785.,-1.3824987411,633785.,-19.7137317657,633785.,-0.6965152025
633805.,-1.4974070787,633805.,-17.5135746002,633805.,-0.6673457623
633825.,-1.0671480894,633825.,-14.9016809464,633825.,-0.6325737238
633845.,-1.406080246,633845.,-12.7031583786,633845.,-0.5182263255
633865.,-0.9459750056,633865.,-10.4302635193,633865.,-0.10588222
633885.,-0.9508341551,633885.,-7.7704873085,633885.,-0.1473737061
633905.,-0.7006459236,633905.,-5.0679574013,633905.,0.1085104123
633925.,-0.7664192915,633925.,-2.2126634121,633925.,0.5189054608
633945.,-0.8265350461,633945.,0.7375001907,633945.,0.2674784660
633965.,-0.8353990316,633965.,3.2961609364,633965.,0.6413907409
633985.,-0.6803655624,633985.,6.0470747948,633985.,0.9498972297
634005.,-0.7146494985,634005.,8.5300245285,634005.,1.068666935
634025.,-0.8948230147,634025.,11.2092485428,634025.,1.2811440229
634045.,-1.0501161814,634045.,13.7202959061,634045.,1.3453419209
634065.,-1.1338098049,634065.,15.9724464417,634065.,1.6791410446
634085.,-1.5407396555,634085.,17.7036647797,634085.,1.5267788172
634105.,-1.3290405273,634105.,19.8600673676,634105.,1.6418977976
634125.,-1.3471155167,634125.,22.0264568329,634125.,1.8973108530
634145.,-1.1903842688,634145.,23.5350246429,634145.,1.8829197884
634165.,-1.0998333693,634165.,24.9994659424,634165.,1.9760994911
634185.,-0.7007831931,634185.,26.1950950623,634185.,1.9817359447
634205.,-0.5025061965,634205.,27.1835136414,634205.,2.3403623104
634225.,0.0168768503,634225.,27.8058776855,634225.,2.3939538002
634245.,0.2575111091,634245.,28.2911281586,634245.,2.0507283211
634265.,0.6700067520,634265.,28.5088977814,634265.,2.1925582886
634285.,0.8535484672,634285.,28.5207366943,634285.,2.0600218773
634305.,0.9558528066,634305.,28.3459415436,634305.,1.9807537794
634325.,1.1597303152,634325.,27.8525104523,634325.,2.0930006504
634345.,1.3895503283,634345.,27.101146698,634345.,1.9529032707
634365.,1.3341724873,634365.,25.9842147827,634365.,2.1105027199
634385.,1.3139758110,634385.,24.9060573578,634385.,2.0312812328
634405.,1.0830059052,634405.,23.3178691864,634405.,1.9370394945
634425.,1.118137002,634425.,21.5938205719,634425.,1.8514270782
634445.,0.9078657031,634445.,19.897813797,634445.,1.5005661249
634465.,0.9419082999,634465.,17.4902744293,634465.,1.4093323946
634485.,0.6085453629,634485.,15.7734918594,634485.,1.1605186462
634505.,1.0535223484,634505.,13.5000085831,634505.,1.0677183867
634525.,1.0380403996,634525.,10.9377107620,634525.,0.9911406040
634545.,1.1756049395,634545.,8.2308120728,634545.,0.7637951970
634565.,1.5732698441,634565.,5.9401407242,634565.,0.4280875623
634585.,1.5961172581,634585.,3.1154959202,634585.,0.6044583321
634605.,1.9984951019,634605.,0.3372994661,634605.,0.5722910166
634625.,2.0331923962,634625.,-2.3331248760,634625.,-0.2325020283
634645.,1.9652707577,634645.,-4.8182215691,634645.,0.2426387966
634665.,2.2372224331,634665.,-7.4489102364,634665.,-0.273724556
634685.,2.2326924801,634685.,-10.0886135101,634685.,-0.4675357044
634705.,2.1167421341,634705.,-12.5228300095,634705.,-0.2991969585
634725.,2.0041952133,634725.,-14.7628517151,634725.,-0.9157006741
634745.,2.0615031719,634745.,-17.0310821533,634745.,-1.1152203083
634765.,1.4980214834,634765.,-19.3406467438,634765.,-0.882753253
634785.,1.2835787535,634785.,-21.0617141724,634785.,-1.0663864613
634805.,1.0075148344,634805.,-22.6116790771,634805.,-1.468520999
634825.,0.7974517345,634825.,-24.5225582123,634825.,-1.3413422108
634845.,0.6468543410,634845.,-25.6405124664,634845.,-1.293238163
634865.,0.8226444125,634865.,-26.8093738556,634865.,-1.6971534491
634885.,0.7699602246,634885.,-27.4612255096,634885.,-1.5246778727
634905.,0.7132775187,634905.,-28.1571235657,634905.,-1.6457022429
634925.,0.4921787679,634925.,-28.034526825,634925.,-1.6625590324
634945.,0.9050197601,634945.,-28.4648342133,634945.,-1.7705376148
634965.,1.0653673410,634965.,-28.2927474976,634965.,-1.7044501305
634985.,0.9940595627,634985.,-27.9231224060,634985.,-1.5718040466
635005.,1.0729832649,635005.,-26.9056339264,635005.,-1.6875481606
635025.,0.7958071232,635025.,-26.1886272430,635025.,-1.5090180635
635045.,0.6911551952,635045.,-24.7609539032,635045.,-1.1159297228
635065.,0.2947705090,635065.,-23.5719623566,635065.,-1.3157300949
635085.,0.1763607711,635085.,-21.9280681610,635085.,-1.2757411003
635105.,0.0911148563,635105.,-20.1942100525,635105.,-1.3258532286
635125.,-0.4233170748,635125.,-18.3867626190,635125.,-0.9922452569
635145.,-0.7468593121,635145.,-16.4211349487,635145.,-0.4591031671
635165.,-1.0999405384,635165.,-13.7042112350,635165.,-0.6596798897
635185.,-1.2731720209,635185.,-11.3633832932,635185.,-0.3296547830
635205.,-1.2960078716,635205.,-9.0157880783,635205.,0.1776941568
635225.,-1.4112173319,635225.,-6.3389945030,635225.,0.0006077162
635245.,-1.7040895224,635245.,-3.8797016144,635245.,0.2164011598
635265.,-1.7282155752,635265.,-1.0795298815,635265.,0.2424959242
635285.,-1.5103900433,635285.,1.5412894487,635285.,0.4042065144
635305.,-1.455768466,635305.,4.2031235695,635305.,0.8505277634
635325.,-1.2630852461,635325.,6.7242279053,635325.,0.9229561687
635345.,-1.0277440548,635345.,9.3675441742,635345.,0.9794534445
635365.,-0.8618438244,635365.,12.0336704254,635365.,1.3838504553
635385.,-0.8577463031,635385.,14.5704059601,635385.,1.3229939938
635405.,-0.8256204128,635405.,16.7422122955,635405.,1.4080307484
635425.,-0.8580651879,635425.,18.6686687469,635425.,1.6309014559
635445.,-0.6366941333,635445.,20.4275722504,635445.,1.5508840084
635465.,-0.9285414815,635465.,22.3849182129,635465.,1.9420186281
635485.,-1.1427963972,635485.,23.9140052795,635485.,2.0656101704
635505.,-0.9850690365,635505.,25.2705440521,635505.,1.9718577862
635525.,-1.1782220602,635525.,26.2158222198,635525.,2.0677022934
635545.,-1.1105433702,635545.,27.0147590637,635545.,2.1807861328
635565.,-1.0756355524,635565.,27.7691593170,635565.,2.4134030342
635585.,-0.9565063715,635585.,28.2650070190,635585.,2.1228888035
635605.,-0.6949725747,635605.,28.1600666046,635605.,2.2414045334
635625.,-0.5221371651,635625.,28.1735286713,635625.,2.0114374161
635645.,-0.4431415200,635645.,27.6149463654,635645.,2.202236414
635665.,0.0982004479,635665.,27.2524871826,635665.,2.1760511398
635685.,0.3063657582,635685.,26.1946372986,635685.,2.1339204311
635705.,0.8044701815,635705.,25.0068340302,635705.,1.9120881557
635725.,0.9100058675,635725.,24.0111827850,635725.,1.7063302994
635745.,1.0218847990,635745.,22.1229515076,635745.,1.5088486671
635765.,1.0411374569,635765.,20.5739593506,635765.,1.412383914
635785.,1.4183255434,635785.,18.8417320251,635785.,1.6484643221
635805.,1.1904693842,635805.,16.3875904083,635805.,1.2337325811
635825.,1.0541548729,635825.,14.0437412262,635825.,1.2066533566
635845.,1.1885762215,635845.,11.7144145966,635845.,1.0884940624
635865.,1.2564585209,635865.,9.4500951767,635865.,1.0081379414
635885.,1.2597143650,635885.,7.0343503952,635885.,0.8634814024
635905.,1.2961270809,635905.,4.286151886,635905.,0.4708265364
635925.,0.9661048651,635925.,1.5995519161,635925.,0.5071485639
635945.,1.0452800989,635945.,-0.6653640270,635945.,-0.0693260431
635965.,1.2595064640,635965.,-3.7061710358,635965.,-0.0342993215
635985.,1.0455055237,635985.,-6.1337304115,635985.,-0.3608433306
636005.,1.5882048607,636005.,-8.8533916473,636005.,-0.1396926641
636025.,1.7832089663,636025.,-11.3146247864,636025.,-0.5393723845
636045.,1.9166580439,636045.,-13.3398828506,636045.,-0.5604805946
636065.,2.1609842777,636065.,-15.8345336914,636065.,-1.0597951412
636085.,2.3318569660,636085.,-17.6741428375,636085.,-0.9511069655
636105.,2.4177646637,636105.,-19.6397418976,636105.,-1.1697490215
636125.,2.2940304279,636125.,-21.3937435150,636125.,-1.3574914932
636145.,1.7421160936,636145.,-23.1019363403,636145.,-1.2802666426
636165.,1.9697724581,636165.,-24.4917240143,636165.,-1.3622916937
636185.,2.1720228195,636185.,-25.8452377319,636185.,-1.6750901937
636205.,1.7123832703,636205.,-26.7344856262,636205.,-1.8941633701
636225.,0.9786875248,636225.,-27.6866436005,636225.,-1.6832976341
636245.,0.7576752305,636245.,-28.0342502594,636245.,-1.4775676727
636265.,0.3992106915,636265.,-27.8773078918,636265.,-1.7388899326
636285.,1.1075891256,636285.,-27.7053012848,636285.,-1.8703274727
636305.,0.94036901,636305.,-27.5910816193,636305.,-1.6596674919
636325.,0.6741672158,636325.,-27.5444927216,636325.,-1.4919815063
636345.,0.7141941786,636345.,-26.3555870056,636345.,-1.5260672569
636365.,0.7991388440,636365.,-25.4723052979,636365.,-1.5327900648
636385.,0.6110576391,636385.,-23.8693199158,636385.,-1.5326730013
636405.,0.8139270544,636405.,-22.3383026123,636405.,-1.3333781958
636425.,0.2971524596,636425.,-20.3787345886,636425.,-1.2750574350
636445.,0.4334019125,636445.,-18.8994064331,636445.,-0.9280890822
636465.,0.1666675955,636465.,-17.1052742004,636465.,-1.0490186214
636485.,0.0874420032,636485.,-15.0325307846,636485.,-0.5535023808
636505.,-0.0030865013,636505.,-12.3290205002,636505.,-0.4815567136
636525.,-0.3215723932,636525.,-10.1852006912,636525.,-0.1932434887
636545.,-0.3108171821,636545.,-7.2665028572,636545.,0.0384263359
636565.,-0.5934553742,636565.,-5.2712869644,636565.,0.3229272366
636585.,-1.2581512928,636585.,-2.3926789761,636585.,0.5193495154
636605.,-1.9078211784,636605.,0.053065151,636605.,0.7165249586
636625.,-1.3434741497,636625.,2.7058260441,636625.,0.6753507257
636645.,-1.6718866825,636645.,5.6185507774,636645.,0.9556526542
636665.,-1.7728040218,636665.,7.7805628777,636665.,1.0251419544
636685.,-1.7593588829,636685.,10.3868360519,636685.,0.9502039552
636705.,-1.7288479805,636705.,12.5229263306,636705.,1.4287916422
636725.,-1.4758037329,636725.,15.2438735962,636725.,1.3045595884
636745.,-1.5676596165,636745.,17.2049674988,636745.,1.3416355848
636765.,-1.158706069,636765.,19.352142334,636765.,1.7474645376
636785.,-1.0418189764,636785.,21.1913318634,636785.,1.7614655495
636805.,-1.1218777895,636805.,22.5585231781,636805.,1.9617930651
636825.,-1.0537804365,636825.,24.0457572937,636825.,2.0177576542
636845.,-1.0479737520,636845.,25.1462802887,636845.,2.0892689228
636865.,-0.7023527026,636865.,26.4301242828,636865.,2.2352540493
636885.,-0.9613078237,636885.,27.0155963898,636885.,2.1139962673
636905.,-0.8023280501,636905.,27.8828887939,636905.,2.1457557678
636925.,-1.1941484213,636925.,28.138753891,636925.,2.2107682228
636945.,-1.2368373871,636945.,27.9763431549,636945.,2.0695493221
636965.,-1.0524390936,636965.,27.6135768890,636965.,2.0739297867
636985.,-1.0990617275,636985.,27.0741672516,636985.,2.145960331
637005.,-0.9086001515,637005.,26.5026416779,637005.,2.1268525124
637025.,-0.7944096923,637025.,25.3497982025,637025.,2.1204197407
637045.,-0.6633521318,637045.,24.328163147,637045.,1.8797171116
637065.,-0.250330925,637065.,22.7269706726,637065.,1.7597477436
637085.,-0.1369946599,637085.,21.2750453949,637085.,1.8182199001
637105.,0.0845845193,637105.,19.7594642639,637105.,1.6819629669
637125.,0.3311114311,637125.,17.3790416718,637125.,1.4687606096
637145.,0.7245413065,637145.,15.3028621674,637145.,1.4240334034
637165.,0.9040753245,637165.,13.0463724136,637165.,1.2452818155
637185.,1.0304553509,637185.,10.7734975815,637185.,1.2551569939
637205.,1.2481993437,637205.,8.1927146912,637205.,0.7752717733
637225.,1.2252147198,637225.,5.8265757561,637225.,0.7647859454
637245.,1.5047510862,637245.,3.1415355206,637245.,0.4114047289
637265.,1.2893441916,637265.,0.4564285278,637265.,0.2832882702
637285.,1.3662190437,637285.,-2.1881599426,637285.,-0.0575374924
637305.,1.2984411716,637305.,-4.8079252243,637305.,0.1079016924
637325.,1.3034561872,637325.,-7.4397983551,637325.,-0.5053542852
637345.,1.304261446,637345.,-9.9528961182,637345.,-0.4909696579
637365.,1.2883136272,637365.,-12.3771438599,637365.,-0.6252462268
637385.,1.4379153252,637385.,-14.5369138718,637385.,-0.5931620002
637405.,1.7046018839,637405.,-16.7731437683,637405.,-0.5389425755
637425.,1.7178161144,637425.,-18.4770755768,637425.,-1.2721854448
637445.,1.8347691298,637445.,-20.6003055573,637445.,-1.0131726265
637465.,2.2427196503,637465.,-22.4743194580,637465.,-1.3872486353
637485.,2.0858848095,637485.,-23.6595001221,637485.,-1.3747080564
637505.,2.5989592075,637505.,-24.7727985382,637505.,-1.6235654354
637525.,2.5688831806,637525.,-25.8298797607,637525.,-1.6932146549
637545.,2.5861620903,637545.,-26.3990440369,637545.,-1.3732694387
637565.,2.3324878216,637565.,-27.3323230743,637565.,-1.7611076832
637585.,2.4814031124,637585.,-27.4789237976,637585.,-1.6955752373
637605.,2.1629226208,637605.,-27.8868846893,637605.,-1.6294702291
637625.,2.308144331,637625.,-27.4938373566,637625.,-1.6966782808
637645.,1.7159024477,637645.,-26.8615531921,637645.,-1.6861511469
637665.,1.4922730923,637665.,-26.4880352020,637665.,-1.6063388586
637685.,1.2938748598,637685.,-25.5115795135,637685.,-1.4010373354
637705.,0.9191208482,637705.,-24.3500881195,637705.,-1.4872375727
637725.,0.8304604888,637725.,-22.8419971466,637725.,-1.4687570333
637745.,0.6264638901,637745.,-21.5141353607,637745.,-1.143229723
637765.,0.5408744216,637765.,-19.6485691071,637765.,-1.1958669424
637785.,0.2732575238,637785.,-18.0646591187,637785.,-0.7698777914
637805.,0.5191618204,637805.,-15.6677856445,637805.,-1.0123721361
637825.,0.2630487084,637825.,-13.7394399643,637825.,-0.5787689686
637845.,0.1725331396,637845.,-11.3288192749,637845.,-0.4419773817
637865.,0.2670942843,637865.,-8.6879234314,637865.,-0.5072693229
637885.,0.1912240833,637885.,-6.0951557159,637885.,-0.2277103513
637905.,0.3668535054,637905.,-3.5994405746,637905.,0.0725323409
637925.,-0.2781098187,637925.,-0.8706951737,637925.,0.1836663187
637945.,-0.2999919355,637945.,1.4531679153,637945.,0.3367003500
637965.,-0.3900513947,637965.,4.100918293,637965.,0.7165225744
637985.,-0.890789032,637985.,6.6417183876,637985.,0.7549211383
638005.,-1.0391715765,638005.,9.2635393143,638005.,1.1319564581
638025.,-1.0129566193,638025.,11.4730110168,638025.,1.198718071
638045.,-1.3231738806,638045.,13.5136175156,638045.,1.5552697182
638065.,-1.6874916553,638065.,15.8145360947,638065.,1.5286576748
638085.,-1.7153511047,638085.,17.8413524628,638085.,1.5971478224
638105.,-1.8792531490,638105.,19.7443027496,638105.,1.7247304916
638125.,-1.8661235571,638125.,21.5194244385,638125.,1.9208369255
638145.,-1.741663456,638145.,22.9422435760,638145.,2.1942820549
638165.,-1.6716300249,638165.,24.4946498871,638165.,2.2491924763
638185.,-1.6116374731,638185.,25.3295917511,638185.,2.2176730633
638205.,-1.3084572554,638205.,26.5035648346,638205.,2.1494438648
638225.,-1.1462413073,638225.,27.1256694794,638225.,2.2202320099
638245.,-1.0107904673,638245.,27.0687770844,638245.,2.2099971771
638265.,-0.7242408991,638265.,27.4688854218,638265.,2.0407130718
638285.,-0.8891811371,638285.,27.2418193817,638285.,1.9909807444
638305.,-0.7571250796,638305.,27.0336093903,638305.,1.9883780479
638325.,-0.7392428517,638325.,26.5300483704,638325.,2.0822434425
638345.,-0.7030182481,638345.,25.6717891693,638345.,2.0368323326
638365.,-0.8574125767,638365.,24.5472354889,638365.,1.9487372637
638385.,-0.9657195210,638385.,23.2299537659,638385.,1.7244148254
638405.,-0.8582969904,638405.,21.7368354797,638405.,1.8657448292
638425.,-0.7275056243,638425.,20.316608429,638425.,1.494260788
638445.,-0.7948439121,638445.,18.3544960022,638445.,1.2602726221
638465.,-0.8130794764,638465.,16.1724739075,638465.,1.4668344259
638485.,-0.5824245214,638485.,13.9467525482,638485.,1.0721241236
638505.,-0.2880648375,638505.,11.8819942474,638505.,1.2022523880
638525.,0.0272140633,638525.,9.5602626801,638525.,0.9958990812
638545.,0.2707801163,638545.,6.8803281784,638545.,0.7180715799
638565.,0.5353527665,638565.,4.4996614456,638565.,0.5213237405
638585.,0.6009217501,638585.,1.7676641941,638585.,0.4480819702
638605.,1.0475871563,638605.,-0.5655635595,638605.,0.2323590070
638625.,1.325894475,638625.,-3.1971580982,638625.,-0.005576483
638645.,1.4729267359,638645.,-5.8349504471,638645.,-0.1480955184
638665.,1.6420332193,638665.,-8.5020484924,638665.,-0.2559790611
638685.,1.6347863674,638685.,-10.7490377426,638685.,-0.2907149792
638705.,1.5966718197,638705.,-12.9453258514,638705.,-0.5100180507
638725.,1.7130541801,638725.,-15.5034646988,638725.,-0.6730805039
638745.,1.4528721571,638745.,-17.2128353119,638745.,-0.7621414661
638765.,1.6151243448,638765.,-19.1080131531,638765.,-1.2679804564
638785.,1.4715619087,638785.,-21.3253593445,638785.,-1.276606679
638805.,1.5385681391,638805.,-22.5896759033,638805.,-1.0802732706
638825.,1.5841324329,638825.,-23.9085140228,638825.,-1.2496020794
638845.,1.7909557819,638845.,-25.1063232422,638845.,-1.6083676815
638865.,1.7695688009,638865.,-25.7869548798,638865.,-1.6110726595
638885.,2.1090154648,638885.,-26.3813285828,638885.,-1.6290942430
638905.,2.1834928989,638905.,-26.9282302856,638905.,-1.6444703341
638925.,2.2747299671,638925.,-27.2220191956,638925.,-1.8403176069
638945.,2.4237730503,638945.,-27.2060642242,638945.,-1.3750468493
638965.,2.4359874725,638965.,-26.9310646057,638965.,-1.5878508091
638985.,2.4962210655,638985.,-26.5633296967,638985.,-1.5746290684
639005.,2.4800693989,639005.,-25.4082679749,639005.,-1.6191102266
639025.,2.4056065083,639025.,-24.4497585297,639025.,-1.4644016027
639045.,2.1486063004,639045.,-23.4134750366,639045.,-1.3911783695
639065.,1.7233833075,639065.,-22.3771476746,639065.,-1.2513684034
639085.,1.452285409,639085.,-20.604839325,639085.,-1.3767755032
639105.,1.1050314903,639105.,-18.4903774261,639105.,-0.9870119691
639125.,0.9007440805,639125.,-16.3177642822,639125.,-0.7591300011
639145.,0.8738058805,639145.,-14.6881990433,639145.,-1.0346345901
639165.,0.6441207528,639165.,-12.1939811707,639165.,-0.6918176413
639185.,0.1941938400,639185.,-9.9680595398,639185.,-0.3889324665
639205.,0.0468339212,639205.,-7.5884261131,639205.,-0.4987576604
639225.,0.1506586969,639225.,-5.1610932350,639225.,-0.0672319904
639245.,-0.1678236723,639245.,-2.7873330116,639245.,0.2370674312
639265.,-0.0380839072,639265.,0.1732861996,639265.,0.2209714800
639285.,-0.3369020522,639285.,2.6884183884,639285.,0.4455524683
639305.,-0.0027827569,639305.,5.320016861,639305.,0.5741595626
639325.,-0.0226426926,639325.,7.4568276405,639325.,0.7667834759
639345.,0.3118955195,639345.,10.3628931046,639345.,0.8447672129
639365.,0.0625625774,639365.,12.4473733902,639365.,1.1346161366
639385.,-0.5247341394,639385.,14.9603490829,639385.,1.4139871597
639405.,-1.4447977543,639405.,16.8935928345,639405.,1.3790075779
639425.,-1.2757411003,639425.,18.6401367188,639425.,1.623644352
639445.,-1.4375333786,639445.,20.3329238892,639445.,1.8890445232
639465.,-1.6272995472,639465.,21.7660598755,639465.,1.9497566223
639485.,-1.6508421898,639485.,23.3710365295,639485.,2.3242917061
639505.,-1.8675167561,639505.,24.6601257324,639505.,1.9602375031
639525.,-1.6876931190,639525.,25.5545902252,639525.,2.3525440693
639545.,-2.0546424389,639545.,26.0321083069,639545.,2.1709554195
639565.,-1.4677734375,639565.,26.9126014709,639565.,1.9756979942
639585.,-1.5251349211,639585.,26.7392406464,639585.,2.0904955864
639605.,-1.5306037664,639605.,26.9768657684,639605.,1.8797841072
639625.,-1.2641516924,639625.,26.7207012177,639625.,2.1003305912
639645.,-1.3516976833,639645.,25.8973579407,639645.,2.3168385029
639665.,-0.8423156738,639665.,25.7281646729,639665.,1.9156063795
639685.,-1.0832487345,639685.,24.7214126587,639685.,1.9131631851
639705.,-0.6754642129,639705.,23.5304107666,639705.,1.8075550795
639725.,-0.2580836415,639725.,22.1650905609,639725.,1.6195145845
639745.,-0.6932285428,639745.,20.8570079803,639745.,1.5869340897
639765.,-1.197680831,639765.,18.9212760925,639765.,1.5059860945
