gyro.x_x,gyro.x_y,gyro.y_x,gyro.y_y,gyro.z_x,gyro.z_y
162522.,1.6232169867,162522.,-27.828704834,162522.,-1.8416603804
162542.,1.6656486988,162542.,-25.9365825653,162542.,-1.4962922335
162562.,1.6801491976,162562.,-24.1448669434,162562.,-1.3329023123
162582.,1.7694375515,162582.,-22.0031604767,162582.,-1.207880497
162602.,1.616001606,162602.,-19.5723819733,162602.,-1.1071707010
162622.,1.2253937721,162622.,-16.7040042877,162622.,-0.9261609912
162642.,1.0195159912,162642.,-14.296957016,162642.,-0.5824710131
162662.,0.6490108371,162662.,-11.6978197098,162662.,-0.5302075744
162682.,0.3662354648,162682.,-8.6800813675,162682.,-0.4803856313
162702.,0.084032923,162702.,-6.0339775085,162702.,-0.0391325168
162722.,-0.5638669729,162722.,-2.886947155,162722.,0.164945364
162742.,-0.6645337343,162742.,-0.1497244835,162742.,0.1682605743
162762.,-0.6738228798,162762.,3.1577539444,162762.,0.5619636178
162782.,-0.8378219604,162782.,6.2276134491,162782.,0.4667105675
162802.,-0.6052855849,162802.,8.8104343414,162802.,0.9162647724
162822.,-0.6003479362,162822.,11.8127002716,162822.,1.0617678165
162842.,-0.1321349591,162842.,14.7865180969,162842.,1.2337907553
162862.,0.0064234603,162862.,17.2477016449,162862.,1.4572287798
162882.,0.3511694372,162882.,19.580904007,162882.,1.4454094172
162902.,0.7075210214,162902.,22.2938842773,162902.,1.6115640402
162922.,0.8211342692,162922.,24.2563247681,162922.,1.9801831245
162942.,0.8890197277,162942.,26.0607624054,162942.,1.9774898291
162962.,1.0971364975,162962.,27.6272964478,162962.,1.9784444571
162982.,0.6121492982,162982.,29.3169879913,162982.,2.3506965637
163002.,0.6980736852,163002.,30.6128826141,163002.,2.1916348934
163022.,0.2757844627,163022.,31.6576538086,163022.,2.2626223564
163042.,0.1463641673,163042.,32.6442031860,163042.,2.6971845627
163062.,-0.1068497449,163062.,33.1116600037,163062.,2.5926928520
163082.,-0.1399520785,163082.,33.3452835083,163082.,2.6727719307
163102.,-0.4849784076,163102.,33.1893119812,163102.,2.3906710148
163122.,-0.6461033821,163122.,32.9585075378,163122.,2.3823859692
163142.,-0.3634347022,163142.,32.111530304,163142.,2.3499310017
163162.,-0.3279759884,163162.,31.7306461334,163162.,2.4003162384
163182.,-0.2931369841,163182.,30.6560153961,163182.,2.3853244781
163202.,-0.0777500644,163202.,29.4281940460,163202.,2.2298364639
163222.,0.0958455056,163222.,27.8085613251,163222.,2.0210895538
163242.,0.4506894648,163242.,25.8807144165,163242.,2.0776245594
163262.,0.5289446115,163262.,24.1855087280,163262.,1.8502341509
163282.,0.6291869283,163282.,21.7267208099,163282.,1.5163781643
163302.,0.5388531685,163302.,19.606048584,163302.,1.5364083052
163322.,0.5197018981,163322.,16.9789218903,163322.,1.3158305883
163342.,0.5146767497,163342.,14.3971080780,163342.,0.9232510328
163362.,0.1841748357,163362.,11.5363063812,163362.,0.7180566788
163382.,-0.1204478294,163382.,8.969622612,163382.,0.7866274118
163402.,-0.2344588488,163402.,5.9300918579,163402.,0.7843815088
163422.,-0.6849860549,163422.,3.0321888924,163422.,0.2277476937
163442.,-0.4958565831,163442.,0.1065481454,163442.,0.2157066166
163462.,-1.0191345215,163462.,-2.8943612576,163462.,0.0346936882
163482.,-0.9782224298,163482.,-6.1006236076,163482.,0.0385868847
163502.,-0.968626678,163502.,-8.7091398239,163502.,-0.4673879743
163522.,-0.6525878906,163522.,-11.7974014282,163522.,-0.5210299492
163542.,-0.6563567519,163542.,-14.4122619629,163542.,-0.5738857985
163562.,-0.0192729123,163562.,-16.9123020172,163562.,-1.1054369211
163582.,0.1445132047,163582.,-19.4428710938,163582.,-1.0758672953
163602.,0.5494542718,163602.,-21.8046302795,163602.,-1.4040826559
163622.,1.0614197254,163622.,-23.9468727112,163622.,-1.7762206793
163642.,1.2288621664,163642.,-25.6253032684,163642.,-1.5067788363
163662.,1.3555393219,163662.,-27.6429786682,163662.,-1.4499381781
163682.,1.3265945911,163682.,-28.8040714264,163682.,-2.0014777184
163702.,1.4962331057,163702.,-30.197675705,163702.,-1.9714454412
163722.,1.1512149572,163722.,-31.2815151215,163722.,-2.1891045570
163742.,1.3684307337,163742.,-32.0148925781,163742.,-2.1092474461
163762.,1.1891013384,163762.,-32.7129745483,163762.,-2.1155977249
163782.,1.0934000015,163782.,-32.8550682068,163782.,-2.0513813496
163802.,0.6552619338,163802.,-32.8209457397,163802.,-1.7619155645
163822.,0.6467968822,163822.,-32.7475128174,163822.,-1.9770400524
163842.,0.4743235409,163842.,-32.1703338623,163842.,-1.8394483328
163862.,0.4102568924,163862.,-31.4271793365,163862.,-1.991232276
163882.,0.2355576009,163882.,-30.4963684082,163882.,-1.5951007605
163902.,0.6131041646,163902.,-28.8196868896,163902.,-1.6955667734
163922.,0.9686436653,163922.,-27.4669284821,163922.,-1.4735295773
163942.,1.0686347485,163942.,-25.5939979553,163942.,-1.6096858978
163962.,1.1333798170,163962.,-23.7830677032,163962.,-1.4777323008
163982.,1.205924511,163982.,-21.7107772827,163982.,-1.2438935041
164002.,1.1765418053,164002.,-19.2915000916,164002.,-1.1955231428
164022.,1.1911349297,164022.,-16.9791374207,164022.,-0.9411135316
164042.,1.1939311028,164042.,-14.1468811035,164042.,-0.8207266331
164062.,0.8570225835,164062.,-11.4152641296,164062.,-0.3320328593
164082.,0.7844962478,164082.,-8.9462957382,164082.,-0.2082227767
164102.,0.6433452964,164102.,-5.950773716,164102.,-0.091850698
164122.,0.0004547055,164122.,-3.0834412575,164122.,0.1721876711
164142.,-0.174590081,164142.,-0.1339020580,164142.,0.1885365248
164162.,-0.2883961797,164162.,2.7244567871,164162.,0.5128312111
164182.,-0.3592095971,164182.,5.5552411079,164182.,0.7068905830
164202.,-0.7864989042,164202.,8.4976873398,164202.,1.0180053711
164222.,-0.5669700503,164222.,11.2112588882,164222.,0.8261441588
164242.,-0.6810312867,164242.,14.0014753342,164242.,1.3098984957
164262.,-0.7238497138,164262.,16.4230747223,164262.,1.4607280493
164282.,-0.3777592480,164282.,19.2234516144,164282.,1.479262352
164302.,0.0075011053,164302.,21.3661384583,164302.,1.6227612495
164322.,-0.0204288848,164322.,23.450756073,164322.,1.9286321402
164342.,0.4962952435,164342.,25.3743972778,164342.,2.0085625648
164362.,0.6690578461,164362.,27.3451442719,164362.,2.2731466293
164382.,0.7177673578,164382.,28.9146842957,164382.,2.1858050823
164402.,0.9992280006,164402.,29.9057369232,164402.,2.4439396858
164422.,1.0224722624,164422.,31.0095462799,164422.,2.3101754189
164442.,0.834435463,164442.,31.7930717468,164442.,2.6043102741
164462.,0.6316626668,164462.,32.4852409363,164462.,2.3837361336
164482.,0.2796001732,164482.,32.4125289917,164482.,2.6017148495
164502.,0.0907715932,164502.,32.704990387,164502.,2.5093991756
164522.,0.2043763697,164522.,32.2619323730,164522.,2.4314541817
164542.,-0.2173826396,164542.,31.8300628662,164542.,2.4921858311
164562.,-0.3090709746,164562.,31.0411033630,164562.,2.4022874832
164582.,-0.3257094324,164582.,29.9234809875,164582.,2.2437915802
164602.,-0.5458918214,164602.,28.9554977417,164602.,2.0902934074
164622.,-0.3425478935,164622.,27.4129905701,164622.,2.0069448948
164642.,-0.2827174067,164642.,25.5126876831,164642.,2.2087061405
164662.,0.0127155436,164662.,23.4968338013,164662.,1.9106323719
164682.,0.0630107522,164682.,21.4987716675,164682.,1.5113804340
164702.,0.3300475776,164702.,19.3977298737,164702.,1.6647913456
164722.,0.4463904500,164722.,17.042301178,164722.,1.3235015869
164742.,0.6286883950,164742.,14.5620975494,164742.,1.0783948898
164762.,0.5185188055,164762.,11.7863740921,164762.,0.9047934413
164782.,0.5645198822,164782.,8.9879131317,164782.,0.7989062667
164802.,0.2342701703,164802.,5.9723148346,164802.,0.3344002962
164822.,0.1373997033,164822.,3.0956473351,164822.,0.5224500895
164842.,-0.0086778319,164842.,0.3756075203,164842.,0.0761618987
164862.,-0.0815692395,164862.,-2.4685869217,164862.,0.1530502588
164882.,-0.3488310874,164882.,-5.0864429474,164882.,0.1448805034
164902.,-0.5110355616,164902.,-8.4365568161,164902.,-0.5293645859
164922.,-0.7509808540,164922.,-11.0250272751,164922.,-0.2399430424
164942.,-0.4088890553,164942.,-13.6882419586,164942.,-0.876567781
164962.,-0.4356141090,164962.,-16.4178981781,164962.,-0.7162202001
164982.,-0.3350836933,164982.,-18.8032226562,164982.,-0.9001844525
165002.,0.1185225621,165002.,-21.2793827057,165002.,-1.3663140535
165022.,0.3086726069,165022.,-23.2576522827,165022.,-1.3539272547
165042.,0.7616105676,165042.,-25.3341102600,165042.,-1.3528444767
165062.,0.9389548302,165062.,-26.8280258179,165062.,-1.8585579395
165082.,1.2260231972,165082.,-28.3581752777,165082.,-1.9324434996
165102.,1.3827952147,165102.,-29.6276550293,165102.,-2.0054197311
165122.,1.6514819860,165122.,-30.5843544006,165122.,-2.0691211224
165142.,1.6004756689,165142.,-31.5444984436,165142.,-1.8955082893
165162.,1.5955580473,165162.,-31.9911899567,165162.,-1.8667703867
165182.,1.3915618658,165182.,-32.5340156555,165182.,-1.9521776438
165202.,1.2526019812,165202.,-32.4891014099,165202.,-1.9837520123
165222.,0.7699608207,165222.,-32.2305679321,165222.,-1.8883378506
165242.,0.9537522793,165242.,-31.5640048981,165242.,-1.7070988417
165262.,0.544985652,165262.,-30.8665599823,165262.,-1.7810020447
165282.,0.3796730638,165282.,-29.6649723053,165282.,-1.9338988066
165302.,0.3165950477,165302.,-28.6692199707,165302.,-1.4857040644
165322.,0.1831181794,165322.,-27.084066391,165322.,-1.7367248535
165342.,0.0001882423,165342.,-25.5322265625,165342.,-1.3475590944
165362.,0.1802404374,165362.,-23.6553344727,165362.,-0.9210013747
165382.,0.3097150326,165382.,-21.3076057434,165382.,-1.2342537642
165402.,0.5669885278,165402.,-19.4235992432,165402.,-0.9925716519
165422.,0.5572134852,165422.,-16.9339275360,165422.,-0.8110097647
165442.,1.0400106907,165442.,-14.2226295471,165442.,-0.6699061394
165462.,0.7945654988,165462.,-11.7478637695,165462.,-0.5939596891
165482.,0.8206449747,165482.,-9.0614681244,165482.,-0.2915435731
165502.,0.5320107937,165502.,-6.1636395454,165502.,0.2754740417
165522.,0.5220942497,165522.,-3.2944011688,165522.,0.1645149589
165542.,0.6026065946,165542.,-0.3287041783,165542.,0.2446334660
165562.,-0.0006444937,165562.,2.4499990940,165562.,0.6564875841
165582.,-0.0578858666,165582.,5.4932813644,165582.,0.6005680561
165602.,-0.6194189191,165602.,8.0437726974,165602.,0.8971703649
165622.,-0.6973583698,165622.,11.1850585938,165622.,0.8210502863
165642.,-0.6433387995,165642.,13.6710662842,165642.,1.4422838688
165662.,-0.7275679111,165662.,15.8673496246,165662.,1.5780892372
165682.,-0.7933958173,165682.,18.4487876892,165682.,1.490901351
165702.,-0.6106907129,165702.,20.5726776123,165702.,1.8185124397
165722.,-0.2468788624,165722.,23.0973873138,165722.,1.9003568888
165742.,-0.1055737585,165742.,24.4969768524,165742.,2.0492734909
165762.,0.2947847545,165762.,26.6127796173,165762.,1.8839815855
165782.,0.4119499922,165782.,28.0968456268,165782.,2.2767717838
165802.,0.6355704665,165802.,29.1633148193,165802.,1.9714176655
165822.,0.7623651028,165822.,30.3179988861,165822.,2.3152022362
165842.,0.9979805350,165842.,31.2170581818,165842.,2.2046661377
165862.,0.9291827679,165862.,31.7273235321,165862.,2.5254631042
165882.,0.8490843773,165882.,32.1835021973,165882.,2.3940403461
165902.,0.8084563613,165902.,32.1330261230,165902.,2.3488492966
165922.,0.576962173,165922.,32.1178970337,165922.,2.3021998405
165942.,0.4515380859,165942.,31.1464176178,165942.,2.2202897072
165962.,0.2733569443,165962.,30.5353240967,165962.,2.3894803524
165982.,-0.1432538927,165982.,29.5971298218,165982.,2.1873655319
166002.,-0.2726166844,166002.,28.449754715,166002.,2.3014566898
166022.,-0.2676761448,166022.,26.9396057129,166022.,2.0184941292
166042.,-0.3573185802,166042.,25.5088996887,166042.,1.9572798014
166062.,-0.2525402904,166062.,23.553440094,166062.,1.8075178862
166082.,-0.3754614592,166082.,21.3890724182,166082.,1.8171733618
166102.,-0.0807500407,166102.,19.3980445862,166102.,1.6424454451
166122.,-0.0700418204,166122.,16.9062919617,166122.,1.4724223614
166142.,0.2929424942,166142.,14.3406839371,166142.,0.8243519664
166162.,0.4094280899,166162.,11.6606931686,166162.,1.0758312941
166182.,0.3799797595,166182.,8.9135923386,166182.,0.9103899002
166202.,0.7454632521,166202.,6.4916629791,166202.,0.3919027448
166222.,0.5350313783,166222.,3.5605621338,166222.,0.4467674196
166242.,0.7128847837,166242.,0.6649644971,166242.,0.1613246351
166262.,0.2787723243,166262.,-2.2674996853,166262.,0.0618138984
166282.,0.2725588977,166282.,-5.1662902832,166282.,-0.0136084221
166302.,0.2481239289,166302.,-7.7063932419,166302.,-0.0916634202
166322.,0.0565915704,166322.,-10.4832143784,166322.,-0.3609536290
166342.,0.1213964894,166342.,-13.1554384232,166342.,-0.82290411
166362.,0.1725886911,166362.,-15.6598081589,166362.,-0.9336155653
166382.,-0.1626871973,166382.,-18.3743782043,166382.,-0.5875505805
166402.,0.0563436002,166402.,-20.3788928986,166402.,-1.2374196053
166422.,0.1440525651,166422.,-22.5439872742,166422.,-1.3907545805
166442.,0.2976734936,166442.,-24.5211601257,166442.,-1.3193471432
166462.,0.5177015066,166462.,-26.0583515167,166462.,-1.8073068857
166482.,0.6784203649,166482.,-27.9966011047,166482.,-1.631418705
166502.,1.0659036636,166502.,-28.8358020782,166502.,-1.6918203831
166522.,1.1758685112,166522.,-30.0335960388,166522.,-1.8640359640
166542.,1.4950345755,166542.,-30.9746170044,166542.,-1.8758628368
166562.,1.6555484533,166562.,-31.4273605347,166562.,-2.2795815468
166582.,1.6546236277,166582.,-31.8169822693,166582.,-2.0589952469
166602.,1.7122519016,166602.,-31.6241760254,166602.,-1.9398089647
166622.,1.3171178102,166622.,-31.692483902,166622.,-1.9822485447
166642.,1.3747810125,166642.,-30.8520755768,166642.,-1.6435879469
166662.,1.0138978958,166662.,-30.2787322998,166662.,-1.7604982853
166682.,0.7754284739,166682.,-29.4319782257,166682.,-1.4834086895
166702.,0.4123343229,166702.,-28.3841972351,166702.,-1.6594078541
166722.,0.1277384162,166722.,-26.8027114868,166722.,-1.7013641596
166742.,0.2034923732,166742.,-25.3211174011,166742.,-1.3937433958
166762.,-0.0210851934,166762.,-23.4922218323,166762.,-1.331193924
166782.,-0.2273846567,166782.,-21.4961032867,166782.,-1.1209139824
166802.,-0.1442915201,166802.,-19.2424564362,166802.,-0.8519016504
166822.,0.154299289,166822.,-16.9263248444,166822.,-0.8548426628
166842.,-0.1548337489,166842.,-14.5578250885,166842.,-0.4096561074
166862.,-0.0923490226,166862.,-11.6831226349,166862.,-0.5225788355
166882.,0.2801390886,166882.,-9.0737266541,166882.,-0.1797553301
166902.,0.3907794654,166902.,-6.3178801537,166902.,-0.1970971078
166922.,0.1033509672,166922.,-3.5140762329,166922.,0.0656198487
166942.,0.2965767384,166942.,-0.5649106503,166942.,0.6046761274
166962.,0.2723886371,166962.,1.9127321243,166962.,0.0865345821
166982.,0.3739404082,166982.,4.9155826569,166982.,0.5830244422
167002.,-0.0990239605,167002.,7.484849453,167002.,1.0135344267
167022.,-0.2649628520,167022.,10.3845129013,167022.,1.1286146641
167042.,-0.1684333533,167042.,13.1184158325,167042.,1.3220922947
167062.,-0.2866478264,167062.,15.4722490311,167062.,1.3031942844
167082.,-0.8560950160,167082.,18.1480293274,167082.,1.605181098
167102.,-0.5352399945,167102.,20.5018157959,167102.,1.6242763996
167122.,-0.4620660543,167122.,22.3098640442,167122.,2.0339965820
167142.,-0.5157560706,167142.,24.1162223816,167142.,2.0788712502
167162.,-0.4099322557,167162.,26.0214576721,167162.,2.0753765106
167182.,-0.3352222145,167182.,27.3487377167,167182.,2.1120221615
167202.,-0.154911384,167202.,29.0174884796,167202.,2.343621254
167222.,0.3974778950,167222.,30.0918540955,167222.,2.4265203476
167242.,0.4569676816,167242.,30.7872180939,167242.,2.2497122288
167262.,0.630114615,167262.,31.2560081482,167262.,2.3492777348
167282.,0.7290356159,167282.,31.3872795105,167282.,2.5404558182
167302.,0.9423592687,167302.,31.7466220856,167302.,2.2993438244
167322.,1.1449859142,167322.,31.3254528046,167322.,2.2977576256
167342.,0.5736661553,167342.,30.9045200348,167342.,2.1754498482
167362.,0.5459253788,167362.,30.3308544159,167362.,2.2201759815
167382.,0.6206971407,167382.,29.3459720612,167382.,2.0356423855
167402.,0.3975417912,167402.,27.9184455872,167402.,2.1683516502
167422.,0.2528924346,167422.,26.5924301147,167422.,2.1321663857
167442.,-0.2804317474,167442.,25.10247612,167442.,1.9358422756
167462.,-0.2722532451,167462.,23.3955039978,167462.,1.8692620993
167482.,-0.1963294148,167482.,21.2928733826,167482.,1.7113320827
167502.,-0.2144129276,167502.,19.1820278168,167502.,1.6348698139
167522.,-0.3397139311,167522.,16.8643875122,167522.,1.5186177492
167542.,-0.0778712854,167542.,14.256896019,167542.,1.2293809652
167562.,-0.0594504289,167562.,11.7682514191,167562.,0.9594919682
167582.,-0.0740919188,167582.,8.981502533,167582.,0.8714957833
167602.,0.210577637,167602.,6.2222104073,167602.,0.6034764051
167622.,0.2928251922,167622.,3.7298476696,167622.,0.3757458031
167642.,0.5800508857,167642.,1.1474014521,167642.,0.1211656407
167662.,0.5614210963,167662.,-1.9495165348,167662.,-0.1146216765
167682.,0.7346474528,167682.,-4.5565958023,167682.,-0.0903789476
167702.,0.814614594,167702.,-7.4866924286,167702.,-0.5454892516
167722.,0.6302546263,167722.,-10.0539731979,167722.,-0.7251639366
167742.,0.6390365958,167742.,-12.5865631104,167742.,-0.5882866383
167762.,0.5949544311,167762.,-15.0877456665,167762.,-0.8931896687
167782.,0.3835031092,167782.,-17.6582126617,167782.,-0.9037514329
167802.,0.3109837174,167802.,-19.7682552338,167802.,-1.2116562128
167822.,0.3478782475,167822.,-22.0060081482,167822.,-1.2995855808
167842.,0.3138452172,167842.,-23.919670105,167842.,-1.1903586388
167862.,0.3780694008,167862.,-25.6551647186,167862.,-1.4383076429
167882.,0.5705320835,167882.,-27.4297523499,167882.,-1.7157751322
167902.,0.6339623928,167902.,-28.3598785400,167902.,-1.8490645885
167922.,0.9109961987,167922.,-29.7326374054,167922.,-1.9009310007
167942.,1.0954025984,167942.,-30.3623065948,167942.,-2.1393425465
167962.,1.3247323036,167962.,-31.2963409424,167962.,-1.8156130314
167982.,1.3909907341,167982.,-31.4080028534,167982.,-1.9257541895
168002.,1.4053567648,168002.,-31.3340778351,168002.,-1.9301996231
168022.,1.5897620916,168022.,-31.1526012421,168022.,-1.9771111012
168042.,1.4883415699,168042.,-30.7268142700,168042.,-1.8704532385
168062.,1.564948082,168062.,-30.0928916931,168062.,-1.8432933092
168082.,1.158176899,168082.,-29.071762085,168082.,-1.7425795794
168102.,1.1625293493,168102.,-28.1025276184,168102.,-1.7669656277
168122.,0.9290673137,168122.,-26.4629554749,168122.,-1.4425295591
168142.,0.5685790777,168142.,-24.9967575073,168142.,-1.4540859461
168162.,0.1494209468,168162.,-23.2146682739,168162.,-1.3078174591
168182.,-0.0630272031,168182.,-21.0923862457,168182.,-1.0711585283
168202.,-0.2241613865,168202.,-19.1580200195,168202.,-1.0343469381
168222.,-0.3256642520,168222.,-17.0296287537,168222.,-0.725812912
168242.,-0.552849412,168242.,-14.5819778442,168242.,-0.6805543303
168262.,-0.4083499908,168262.,-12.0446453094,168262.,-0.4096854925
168282.,-0.3601480126,168282.,-9.3903017044,168282.,-0.3319221437
168302.,-0.2453635037,168302.,-6.7203207016,168302.,-0.0068481686
168322.,-0.2552421391,168322.,-3.8812673092,168322.,0.291169405
168342.,-0.0748506337,168342.,-0.8171325922,168342.,0.2106797993
168362.,0.1327280998,168362.,1.6990531683,168362.,0.5095055699
168382.,0.0167997666,168382.,4.9298114777,168382.,0.6096573472
168402.,0.0129013639,168402.,7.2861938477,168402.,0.8397780657
168422.,-0.1243298873,168422.,9.9077882767,168422.,0.9846169949
168442.,-0.1768783182,168442.,12.531329155,168442.,1.2317627668
168462.,0.1143758669,168462.,14.9858665466,168462.,1.2772322893
168482.,-0.2023117989,168482.,17.3983726501,168482.,1.2957730293
168502.,-0.4413086176,168502.,19.6692695618,168502.,1.7983845472
168522.,-0.4230801165,168522.,21.8455390930,168522.,1.9191657305
168542.,-0.6061283946,168542.,23.7224693298,168542.,1.7183611393
168562.,-0.5672981143,168562.,25.4812850952,168562.,2.0998127460
168582.,-0.4387761354,168582.,27.0584964752,168582.,2.2369151115
168602.,-0.1494904459,168602.,28.1437625885,168602.,1.9578720331
168622.,-0.3705726266,168622.,29.2529716492,168622.,2.3453412056
168642.,-0.0019693098,168642.,30.2026729584,168642.,2.3293640614
168662.,0.1983606815,168662.,30.5773296356,168662.,2.4591629505
168682.,0.4525767565,168682.,30.9894504547,168682.,2.1815171242
168702.,0.3511707485,168702.,31.1348400116,168702.,2.4182078838
168722.,0.6817065477,168722.,30.9445648193,168722.,2.2973568439
168742.,0.5978805423,168742.,30.5507602692,168742.,2.6906974316
168762.,0.7375498414,168762.,29.9186000824,168762.,2.1508448124
168782.,0.7819564342,168782.,28.9544334412,168782.,2.3129098415
168802.,0.488637656,168802.,27.6189804077,168802.,2.3526442051
168822.,0.5830729604,168822.,26.6232318878,168822.,1.8155677319
168842.,0.4860434532,168842.,24.9662151337,168842.,1.6983186007
168862.,-0.0175852850,168862.,23.4207954407,168862.,2.0881788731
168882.,0.0605134629,168882.,21.2360458374,168882.,1.9045846462
168902.,-0.2003494650,168902.,19.165348053,168902.,1.3976318836
168922.,-0.2091289759,168922.,16.6985149384,168922.,1.2816612720
168942.,-0.196904853,168942.,14.4797992706,168942.,1.2106546164
168962.,-0.3788716495,168962.,11.9545087814,168962.,1.0016696453
168982.,-0.0510426275,168982.,9.2597370148,168982.,0.8863533735
169002.,0.1149043664,169002.,6.2009077072,169002.,0.4659929574
169022.,0.2000614852,169022.,3.8004949093,169022.,0.2497627735
169042.,0.1627310812,169042.,1.3696161509,169042.,0.3998413682
169062.,0.5244367719,169062.,-1.6959106922,169062.,-0.0069612986
169082.,0.8616343737,169082.,-4.4669752121,169082.,-0.3896889091
169102.,0.6548452973,169102.,-7.2086801529,169102.,-0.3391361237
169122.,0.8802765608,169122.,-9.8294973373,169122.,-0.3781958222
169142.,0.8656460643,169142.,-12.5816698074,169142.,-0.6479206085
169162.,1.0209050179,169162.,-15.0662832260,169162.,-0.955106318
169182.,0.9829139113,169182.,-17.2445812225,169182.,-0.9947716594
169202.,0.9659124017,169202.,-19.3446540833,169202.,-1.2306164503
169222.,1.072265029,169222.,-21.4920406342,169222.,-1.3107360601
169242.,1.0034718513,169242.,-23.3475666046,169242.,-1.2896941900
169262.,0.6314817667,169262.,-24.8267192841,169262.,-1.3901851177
169282.,0.8930339813,169282.,-26.6023159027,169282.,-1.6070644855
169302.,0.5844665766,169302.,-28.1082973480,169302.,-1.4700906277
169322.,0.7716349959,169322.,-29.1832466125,169322.,-1.6572805643
169342.,0.7962623239,169342.,-29.9079608917,169342.,-2.2188775539
169362.,0.9994767904,169362.,-30.3697738647,169362.,-1.9290832281
169382.,1.0629184246,169382.,-30.6829147339,169382.,-1.9407551289
169402.,1.1061486006,169402.,-31.0941982269,169402.,-1.9743748903
169422.,1.3185371161,169422.,-30.5087623596,169422.,-1.9694291353
169442.,1.523619175,169442.,-30.2705860138,169442.,-1.7495213747
169462.,1.5804032087,169462.,-29.5241260529,169462.,-1.7613281012
169482.,1.4938350916,169482.,-28.7226390839,169482.,-1.9466727972
169502.,1.2585790157,169502.,-27.7039890289,169502.,-1.6541643143
169522.,1.1670787334,169522.,-26.2305126190,169522.,-1.5256313086
169542.,0.8364554644,169542.,-24.8852748871,169542.,-1.3413454294
169562.,0.7369191647,169562.,-22.9756278992,169562.,-1.2863221169
169582.,0.357085228,169582.,-21.2288932800,169582.,-1.1096626520
169602.,0.0496442132,169602.,-19.2585220337,169602.,-0.6699501276
169622.,-0.0491848066,169622.,-16.884180069,169622.,-0.7567492127
169642.,-0.2548966706,169642.,-14.1909980774,169642.,-0.7708022594
169662.,-0.2436112165,169662.,-11.8653774261,169662.,-0.2808182836
169682.,-0.4824284911,169682.,-9.0344133377,169682.,-0.5094496012
169702.,-0.5694870949,169702.,-6.9548068047,169702.,-0.0688053668
169722.,-0.6022008657,169722.,-4.1098117828,169722.,0.0149645312
169742.,-0.4765609205,169742.,-1.2244553566,169742.,0.2425847352
169762.,-0.0746588781,169762.,1.3511751890,169762.,0.5071330070
169782.,-0.4096496105,169782.,4.1014914513,169782.,0.7811255455
169802.,-0.0714892671,169802.,6.6390867233,169802.,0.9878437519
169822.,-0.0993732512,169822.,9.5646314621,169822.,0.7497389913
169842.,-0.1446290910,169842.,11.9932107925,169842.,1.1493184566
169862.,0.1475087553,169862.,14.4715347290,169862.,1.4235869646
169882.,0.0981612578,169882.,16.9967231750,169882.,1.1823216677
169902.,0.0247637164,169902.,19.1502323151,169902.,1.7489923239
169922.,-0.0750466287,169922.,21.1036872864,169922.,1.7773407698
169942.,-0.1623211801,169942.,23.1304779053,169942.,2.1641368866
169962.,-0.3645656705,169962.,24.8051357269,169962.,1.9560524225
169982.,-0.4847602248,169982.,26.3316230774,169982.,2.2432661057
170002.,-0.4340682626,170002.,27.8391437531,170002.,2.1928467751
170022.,-0.3760472238,170022.,28.5740699768,170022.,2.3249380589
170042.,-0.4125169218,170042.,29.9132957458,170042.,2.1190521717
170062.,-0.3050523102,170062.,30.3052806854,170062.,2.5475516319
170082.,-0.31875965,170082.,30.7416610718,170082.,2.4056735039
170102.,-0.1439519227,170102.,30.7016639709,170102.,2.3448424339
170122.,0.1354587376,170122.,30.3075733185,170122.,2.385417223
170142.,0.2375270724,170142.,30.2078399658,170142.,2.4060282707
170162.,0.3399429023,170162.,29.4806613922,170162.,2.1876316071
170182.,0.3621924818,170182.,28.6557769775,170182.,2.2462785244
170202.,0.4359783232,170202.,27.5882091522,170202.,2.0591721535
170222.,0.543025136,170222.,26.4328556061,170222.,2.0815284252
170242.,0.5053730011,170242.,24.8311042786,170242.,1.7894612551
170262.,0.3023476601,170262.,23.0082931519,170262.,1.8720754385
170282.,0.4169325531,170282.,21.2174701691,170282.,1.7219032049
170302.,0.3890244663,170302.,18.9973831177,170302.,1.5786737204
170322.,0.1704313457,170322.,16.7238693237,170322.,1.4962517023
170342.,-0.1230900511,170342.,14.6536560059,170342.,1.1767388582
170362.,-0.1826946586,170362.,11.8663663864,170362.,1.0486503839
170382.,-0.1085363999,170382.,9.4522743225,170382.,0.8675472736
170402.,-0.1225816980,170402.,6.7582030296,170402.,0.4231595397
170422.,0.1533734798,170422.,3.8265430927,170422.,0.399245441
170442.,-0.1965118498,170442.,1.2462239265,170442.,0.5058527589
170462.,-0.0983541608,170462.,-1.3941695690,170462.,0.2591215968
170482.,0.3535862863,170482.,-4.1108875275,170482.,0.1999830604
170502.,0.6160005331,170502.,-6.8969130516,170502.,-0.4226424992
170522.,0.6760228276,170522.,-9.3949842453,170522.,-0.3340523839
170542.,0.8859403729,170542.,-12.0020151138,170542.,-0.5968217254
170562.,1.1237399578,170562.,-14.4635314941,170562.,-0.8677561879
170582.,1.2764540911,170582.,-16.6254196167,170582.,-0.9243540168
170602.,1.1782524586,170602.,-18.6937294006,170602.,-1.0862302780
170622.,1.2957769632,170622.,-21.0553627014,170622.,-1.2212172747
170642.,1.3749037981,170642.,-22.6525039673,170642.,-0.9349609613
170662.,1.3990799189,170662.,-24.4861373901,170662.,-1.2419772148
170682.,1.1058114767,170682.,-25.9442386627,170682.,-1.8016940355
170702.,1.2662079334,170702.,-27.2225475311,170702.,-1.6238440275
170722.,0.9339552522,170722.,-28.0535354614,170722.,-1.7611384392
170742.,0.7641879320,170742.,-29.1371593475,170742.,-1.6729102135
170762.,1.0164890289,170762.,-29.9035968781,170762.,-2.0396749973
170782.,0.8431203365,170782.,-30.1701641083,170782.,-1.7118643522
170802.,0.8215021491,170802.,-30.0898876190,170802.,-1.7218334675
170822.,1.1287305355,170822.,-30.2342338562,170822.,-1.7850753069
170842.,1.2153103352,170842.,-29.6571521759,170842.,-1.7980177402
170862.,1.3006343842,170862.,-29.2806148529,170862.,-1.6388807297
170882.,1.1088489294,170882.,-28.4365539551,170882.,-1.630994916
170902.,1.3990861177,170902.,-27.2028007507,170902.,-1.5961203575
170922.,1.3611813784,170922.,-26.0015411377,170922.,-1.4048852921
170942.,1.0852104425,170942.,-24.5884170532,170942.,-1.4190235138
170962.,0.924736619,170962.,-22.7506504059,170962.,-1.184927702
170982.,0.6181960702,170982.,-21.0960483551,170982.,-1.1509796381
171002.,0.5441911221,171002.,-18.8011589050,171002.,-0.8612712026
171022.,0.1443957239,171022.,-16.8025074005,171022.,-0.8233760595
171042.,0.1760324091,171042.,-14.4631013870,171042.,-0.6840417981
171062.,-0.1262014955,171062.,-12.0232973099,171062.,-0.4507240653
171082.,-0.27937603,171082.,-9.407324791,171082.,-0.4245178401
171102.,-0.5556576252,171102.,-6.7189197540,171102.,-0.2062608451
171122.,-0.6882376075,171122.,-4.4159135818,171122.,0.1753928661
171142.,-0.7378994823,171142.,-1.3771930933,171142.,0.0728086904
171162.,-0.6731071472,171162.,1.1403462887,171162.,0.5468912721
171182.,-0.6824786067,171182.,3.8888506889,171182.,0.5554000735
171202.,-0.5977064371,171202.,6.5425262451,171202.,0.7448174953
171222.,-0.5030131340,171222.,8.8857412338,171222.,0.9958834052
171242.,-0.3309695423,171242.,11.8555650711,171242.,1.2144277096
171262.,-0.2279876471,171262.,14.3169994354,171262.,1.3325859308
171282.,-0.1028275266,171282.,16.418838501,171282.,1.6188782454
171302.,0.0169559103,171302.,18.5376815796,171302.,1.5180724859
171322.,-0.103763707,171322.,20.6773700714,171322.,1.9907883406
171342.,0.0433677062,171342.,22.5628318787,171342.,1.7341822386
171362.,0.0852048844,171362.,24.3723011017,171362.,1.8508701324
171382.,-0.1935741454,171382.,25.8558368683,171382.,2.2336566448
171402.,-0.1648177654,171402.,27.2030658722,171402.,2.2319090366
171422.,-0.0677215755,171422.,28.119512558,171422.,2.0097279549
171442.,-0.4410654902,171442.,29.0167999268,171442.,2.0181610584
171462.,-0.3828359544,171462.,29.5822601318,171462.,2.0976061821
171482.,-0.1089242101,171482.,29.9756202698,171482.,2.3563451767
171502.,-0.4563521147,171502.,29.8297653198,171502.,2.4085426331
171522.,-0.5805896521,171522.,30.069185257,171522.,2.0630722046
171542.,-0.1343913823,171542.,29.5391387939,171542.,2.2304818630
171562.,-0.2742288113,171562.,29.0541095734,171562.,2.1534090042
171582.,0.1532472670,171582.,28.0833435059,171582.,2.0147719383
171602.,0.0010485644,171602.,27.1915073395,171602.,2.0084891319
171622.,0.3083929121,171622.,25.9935321808,171622.,1.8705173731
171642.,0.5743499994,171642.,24.4213504791,171642.,1.7885674238
171662.,0.3954279125,171662.,22.9971561432,171662.,1.8772388697
171682.,0.3528429568,171682.,20.9182510376,171682.,1.7414351702
171702.,0.2211788148,171702.,19.1162147522,171702.,1.6453136206
171722.,0.4806474745,171722.,16.6664886475,171722.,1.3897316456
171742.,0.1230344251,171742.,14.4925146103,171742.,1.4699182510
171762.,0.1448653638,171762.,12.0485439301,171762.,1.0929814577
171782.,0.003805609,171782.,9.4430856705,171782.,0.990434289
171802.,0.0388657637,171802.,6.8552556038,171802.,0.7104269862
171822.,-0.1761981398,171822.,4.1377854347,171822.,0.6562426686
171842.,0.0710802078,171842.,1.7140192986,171842.,0.4962453246
171862.,0.1423386037,171862.,-0.9985045791,171862.,0.1685748696
171882.,0.1407153159,171882.,-3.6715662479,171882.,0.0587578937
171902.,0.3036956787,171902.,-6.3409252167,171902.,-0.4419792295
171922.,0.2737766504,171922.,-8.7325239182,171922.,-0.3904491067
171942.,0.7267276645,171942.,-11.5078659058,171942.,-0.6357262731
171962.,0.8475090265,171962.,-13.9535942078,171962.,-0.7998955846
171982.,1.0953609943,171982.,-16.0784263611,171982.,-0.9143530130
172002.,1.5154008865,172002.,-18.3986339569,172002.,-1.0148494244
172022.,1.2761940956,172022.,-20.5422592163,172022.,-1.0983289480
172042.,1.6633931398,172042.,-22.2744255066,172042.,-1.4457187653
172062.,1.6985710859,172062.,-23.7652435303,172062.,-1.4954384565
172082.,1.6810935736,172082.,-25.3323764801,172082.,-1.6310125589
172102.,1.6005657911,172102.,-26.8565406799,172102.,-1.7935808897
172122.,1.3402267694,172122.,-27.9736366272,172122.,-1.7466902733
172142.,1.2625892162,172142.,-28.9108676910,172142.,-1.8363456726
172162.,1.3814125061,172162.,-29.3978252411,172162.,-1.8203992844
172182.,1.0080062151,172182.,-29.6418857574,172182.,-1.7304594517
172202.,1.1245763302,172202.,-29.7680301666,172202.,-1.5503641367
172222.,0.9778376818,172222.,-29.3895568848,172222.,-1.8614594936
172242.,1.0193055868,172242.,-29.7602500916,172242.,-1.6880505085
172262.,0.7384927869,172262.,-28.7166595459,172262.,-1.5864129066
172282.,0.9159331322,172282.,-28.0011863708,172282.,-1.5752673149
172302.,1.123705864,172302.,-26.906042099,172302.,-1.5862923861
172322.,1.0851794481,172322.,-25.8973827362,172322.,-1.456786871
172342.,1.0447022915,172342.,-24.2935943604,172342.,-1.4070858955
172362.,0.9979869723,172362.,-22.7372970581,172362.,-0.9010619521
172382.,0.9356859922,172382.,-20.7294635773,172382.,-1.1470381021
172402.,0.9249202013,172402.,-18.8555011749,172402.,-1.0438996553
172422.,0.7883934379,172422.,-16.8138961792,172422.,-0.567637682
172442.,0.3591339588,172442.,-14.0849828720,172442.,-0.5988394618
172462.,0.3251921237,172462.,-11.9553728104,172462.,-0.6129634380
172482.,0.2256125659,172482.,-9.5787906647,172482.,-0.6075491309
172502.,-0.3534845412,172502.,-6.8129897118,172502.,0.0237761065
172522.,-0.3506807685,172522.,-4.0683522224,172522.,0.0109034339
172542.,-0.6114679575,172542.,-1.4431897402,172542.,0.3605321348
172562.,-0.7692139149,172562.,0.9140529633,172562.,0.5413109660
172582.,-0.6678116322,172582.,3.9480013847,172582.,0.5847005844
172602.,-0.9124802947,172602.,6.5081515312,172602.,0.9317301512
172622.,-0.7916018963,172622.,8.7573614120,172622.,0.7415581346
172642.,-0.521314621,172642.,11.5229167938,172642.,1.2858270407
172662.,-0.7164671421,172662.,13.8918151855,172662.,1.5000108480
172682.,-0.2693576813,172682.,16.1108074188,172682.,1.3837726116
172702.,-0.3462485075,172702.,18.3722934723,172702.,1.6072492599
172722.,-0.0926544815,172722.,20.4469394684,172722.,1.6673728228
172742.,0.1638804376,172742.,21.8460903168,172742.,1.7231911421
172762.,0.0590894520,172762.,23.5891475677,172762.,1.9548796415
172782.,0.0409755707,172782.,25.1604499817,172782.,1.8669178486
172802.,0.0062151500,172802.,26.5266666412,172802.,2.1191146374
172822.,0.1358417422,172822.,27.6299571991,172822.,1.9566925764
172842.,-0.1774808466,172842.,28.2018489838,172842.,2.5529696941
172862.,-0.4514499903,172862.,28.7940959930,172862.,2.2119379044
172882.,-0.1924071312,172882.,29.3974208832,172882.,2.3888897896
172902.,-0.6284785271,172902.,29.6096324921,172902.,2.2057595253
172922.,-0.2857829332,172922.,29.3133735657,172922.,2.0680158138
172942.,-0.4826693833,172942.,29.4086818695,172942.,2.1889498234
172962.,-0.3208614886,172962.,28.6158790588,172962.,2.0784094334
172982.,-0.3898924589,172982.,27.8688735962,172982.,2.1651141644
173002.,-0.2880316973,173002.,26.9506435394,173002.,2.1351201534
173022.,-0.2162710726,173022.,25.4905109406,173022.,1.8715616465
173042.,-0.1890060157,173042.,24.0159301758,173042.,1.9682569504
173062.,-0.0258017965,173062.,22.4782428741,173062.,1.6161588430
173082.,0.1924447715,173082.,20.6684036255,173082.,1.4312349558
173102.,0.2342011034,173102.,18.6904602051,173102.,1.6098998785
173122.,-0.0191795826,173122.,16.6161975861,173122.,1.3275412321
173142.,0.2736701071,173142.,14.2255706787,173142.,1.1874303818
173162.,0.3483688235,173162.,12.0454902649,173162.,0.8559527993
173182.,0.2116009444,173182.,9.7511796951,173182.,0.7399030328
173202.,0.0403463095,173202.,7.1787514687,173202.,0.6096259952
173222.,0.2275260389,173222.,4.5705595016,173222.,0.4834758341
173242.,-0.0708634555,173242.,1.7882053852,173242.,0.3412291408
173262.,0.1831248999,173262.,-0.7191322446,173262.,0.2002738118
173282.,0.2347977757,173282.,-3.4469823837,173282.,0.1975109726
173302.,0.1378175467,173302.,-6.0688385963,173302.,0.0042523420
173322.,0.4483869374,173322.,-8.9844379425,173322.,-0.2000850141
173342.,0.3413719833,173342.,-11.1922464371,173342.,-0.6909576058
173362.,0.7322595716,173362.,-13.5815811157,173362.,-0.7863450646
173382.,0.7575372458,173382.,-15.7690496445,173382.,-0.6763145924
173402.,1.0323376656,173402.,-17.9223041534,173402.,-1.1632697582
173422.,1.1531423330,173422.,-20.1002693176,173422.,-1.310407877
173442.,1.6770834923,173442.,-21.5848884583,173442.,-1.2472523451
173462.,1.6293926239,173462.,-23.6116218567,173462.,-1.5100791454
173482.,1.5807892084,173482.,-25.2398071289,173482.,-1.5089125633
173502.,1.8004963398,173502.,-26.1078357697,173502.,-1.5076930523
173522.,1.8608748913,173522.,-27.1744651794,173522.,-1.762778163
173542.,1.6186618805,173542.,-28.194770813,173542.,-1.6872483492
173562.,1.7567987442,173562.,-28.6991996765,173562.,-1.6970185041
173582.,1.4342598915,173582.,-29.3233242035,173582.,-1.839640975
173602.,1.3326280117,173602.,-29.1216011047,173602.,-1.9908485413
173622.,1.3028528690,173622.,-29.2990837097,173622.,-1.8915741444
173642.,1.2094786167,173642.,-28.9251880646,173642.,-1.5853923559
173662.,0.9099679589,173662.,-28.5568122864,173662.,-1.6380146742
173682.,0.9820780754,173682.,-27.6867771149,173682.,-1.5732172728
173702.,0.7638317943,173702.,-26.3963642120,173702.,-1.5023818016
173722.,0.9704896212,173722.,-25.2578754425,173722.,-1.3641725779
173742.,0.8032468557,173742.,-23.9287433624,173742.,-1.4698067904
173762.,0.7211505771,173762.,-22.2449417114,173762.,-1.2111043930
173782.,0.7706391811,173782.,-20.6648788452,173782.,-1.2333048582
173802.,0.6352399588,173802.,-18.6697216034,173802.,-1.0176049471
173822.,0.6712429523,173822.,-16.6930618286,173822.,-0.9446358681
173842.,0.3493229151,173842.,-14.1486501694,173842.,-0.4603098929
173862.,0.7126518488,173862.,-11.8903236389,173862.,-0.4840293527
173882.,0.3852241337,173882.,-9.5079526901,173882.,-0.4064750075
173902.,0.3014464378,173902.,-6.9110159874,173902.,0.2189186066
173922.,-0.1644608080,173922.,-4.4926495552,173922.,-0.028771678
173942.,-0.0558279529,173942.,-1.6817142963,173942.,0.1522806436
173962.,-0.4236962199,173962.,0.7809169888,173962.,0.4860378802
173982.,-0.6342192888,173982.,3.5930886269,173982.,0.6537516713
174002.,-0.5627227426,174002.,6.166864872,174002.,0.7320196033
174022.,-0.5136789083,174022.,8.7198343277,174022.,1.0948367119
174042.,-0.7239236832,174042.,10.9943342209,174042.,1.144007206
174062.,-0.5787460804,174062.,13.5409765244,174062.,0.8453341722
174082.,-0.5233062506,174082.,15.4847621918,174082.,1.5621525049
174102.,-0.4937981069,174102.,17.9692077637,174102.,1.6571593285
174122.,-0.4561028779,174122.,19.6723861694,174122.,1.6281507015
174142.,-0.1290972829,174142.,21.7663002014,174142.,1.5586760044
174162.,0.0473093055,174162.,23.3288230896,174162.,1.7236655951
174182.,-0.0382147506,174182.,24.8789196014,174182.,2.0672607422
174202.,0.0156506039,174202.,26.1579742432,174202.,2.205290556
174222.,0.1737665534,174222.,27.5568466187,174222.,2.2513623238
174242.,-0.1657243073,174242.,27.9220638275,174242.,2.3395016193
174262.,0.0327755138,174262.,28.5365505219,174262.,2.2603418827
174282.,-0.0383096449,174282.,28.9141426086,174282.,1.9687546492
174302.,-0.2036574483,174302.,29.1854419708,174302.,2.49071908
174322.,-0.5192435384,174322.,28.9020423889,174322.,2.2642035484
174342.,-0.2759965360,174342.,28.6429557800,174342.,2.0449221134
174362.,-0.5891529918,174362.,28.1118240356,174362.,2.2800502777
174382.,-0.5068334937,174382.,27.3434009552,174382.,2.0759625435
174402.,-0.7316333055,174402.,26.6015701294,174402.,1.9347964525
174422.,-0.5913645625,174422.,25.2706451416,174422.,2.2279877663
174442.,-0.5536547899,174442.,24.2187252045,174442.,1.6872543097
174462.,-0.3675449193,174462.,22.4334545135,174462.,1.7180242538
174482.,-0.1523043513,174482.,20.6404571533,174482.,1.5290514231
174502.,-0.0614146292,174502.,18.7205867767,174502.,1.4334300756
174522.,-0.0518440083,174522.,16.5017852783,174522.,1.2294414043
174542.,0.1107791364,174542.,13.8472719193,174542.,1.1128258705
174562.,0.2570685446,174562.,11.9650344849,174562.,0.7455135584
174582.,0.1035687849,174582.,9.3277711868,174582.,0.8211905360
174602.,0.133439824,174602.,6.8678927422,174602.,0.7374095917
174622.,0.2565650344,174622.,4.7620158195,174622.,0.6326567531
174642.,0.2883943021,174642.,1.9565733671,174642.,0.4562037289
174662.,0.1524758041,174662.,-0.6999061108,174662.,0.3014684319
174682.,0.1648816466,174682.,-3.4657201767,174682.,-0.0011973738
174702.,0.2364909649,174702.,-5.9525871277,174702.,-0.2324744463
174722.,0.2957486212,174722.,-8.4419307709,174722.,-0.4796984792
174742.,0.4626518488,174742.,-10.7010641098,174742.,-0.4340421557
174762.,0.7156258821,174762.,-13.0650873184,174762.,-0.5698009729
174782.,0.7058724165,174782.,-15.2251625061,174782.,-0.6469129324
174802.,0.8550109267,174802.,-17.5443782806,174802.,-1.0086107254
174822.,0.9527323842,174822.,-19.7522773743,174822.,-0.9817625284
174842.,1.2504001856,174842.,-21.2031402588,174842.,-1.1686925888
174862.,1.5773258209,174862.,-22.9782562256,174862.,-1.3319357634
174882.,1.8753151894,174882.,-24.5129203796,174882.,-1.5267139673
174902.,1.9301946163,174902.,-25.7805595398,174902.,-1.5199531317
174922.,1.7463618517,174922.,-26.7376651764,174922.,-1.816942215
174942.,1.8727459908,174942.,-27.582069397,174942.,-1.9147976637
174962.,1.7651640177,174962.,-28.3253288269,174962.,-1.9304777384
174982.,1.9137939215,174982.,-28.5597133636,174982.,-1.4273182154
175002.,1.7357611656,175002.,-28.6387519836,175002.,-1.8021420240
175022.,1.4588080645,175022.,-28.6232585907,175022.,-1.7210215330
175042.,1.2582030296,175042.,-28.5364074707,175042.,-1.6872042418
175062.,1.4394834042,175062.,-27.9662876129,175062.,-1.6906408072
175082.,1.0354959965,175082.,-27.1863002777,175082.,-1.6742938757
175102.,0.8204721212,175102.,-26.1736984253,175102.,-1.6516338587
175122.,0.9165547490,175122.,-25.2523269653,175122.,-1.3943978548
175142.,0.9268360734,175142.,-23.5730247498,175142.,-1.4827679396
175162.,0.6822568178,175162.,-21.9591007233,175162.,-1.118362546
175182.,0.7397648692,175182.,-20.2500286102,175182.,-1.3235936165
175202.,0.5250834227,175202.,-18.620092392,175202.,-1.0836271048
175222.,0.7532294989,175222.,-16.3809337616,175222.,-0.7883222103
175242.,0.6488413811,175242.,-14.3301954269,175242.,-0.8611032963
175262.,0.5647298098,175262.,-12.1914997101,175262.,-0.4614128172
175282.,0.3079792559,175282.,-9.73295784,175282.,-0.3584100306
175302.,0.5835261941,175302.,-7.1484532356,175302.,-0.0834713057
175322.,0.2254353315,175322.,-4.4608011246,175322.,-0.1565668881
175342.,0.3811328113,175342.,-2.0002882481,175342.,0.0119098732
175362.,0.051024694,175362.,0.6097810864,175362.,0.1713925600
175382.,0.0999400467,175382.,3.2269189358,175382.,0.450815022
175402.,-0.1640545279,175402.,5.4816308022,175402.,0.7562631965
175422.,-0.3281007707,175422.,8.2707796097,175422.,1.0658332109
175442.,-0.7235062122,175442.,10.9694643021,175442.,1.0270470381
175462.,-0.6412676573,175462.,13.0425682068,175462.,1.1161036491
175482.,-0.6934034824,175482.,15.2842454910,175482.,1.1964607239
175502.,-0.6612796783,175502.,17.3684959412,175502.,1.2751686573
175522.,-0.5816961527,175522.,19.3190727234,175522.,1.5253874063
175542.,-0.5319658518,175542.,21.1588153839,175542.,2.1000721455
175562.,-0.3451576531,175562.,22.8186359406,175562.,1.8654177189
175582.,-0.3839792013,175582.,24.2664527893,175582.,2.1770696640
175602.,-0.0209209844,175602.,25.8717536926,175602.,2.0294518471
175622.,0.0265271422,175622.,26.5814113617,175622.,2.1839582920
