gyro.x_x,gyro.x_y,gyro.y_x,gyro.y_y,gyro.z_x,gyro.z_y
436909.,-1.5391776562,436909.,-32.3763008118,436909.,-1.7436476946
436929.,-1.7287529707,436929.,-30.2133941650,436929.,-1.5035785437
436949.,-1.8761950731,436949.,-28.0476341248,436949.,-1.3613618612
436969.,-2.1520698071,436969.,-25.1191596985,436969.,-1.4509181976
436989.,-1.7340744734,436989.,-22.3510246277,436989.,-1.1061962843
437009.,-1.6216791868,437009.,-18.9406204224,437009.,-1.0668395758
437029.,-1.3229446411,437029.,-15.7387847900,437029.,-0.5755197406
437049.,-1.1590737104,437049.,-12.0471143723,437049.,-0.3863052726
437069.,-0.797390759,437069.,-8.3392944336,437069.,-0.0396062359
437089.,-0.4551232457,437089.,-4.1303162575,437089.,-0.0165200476
437109.,0.0650009438,437109.,-0.3612472415,437109.,0.0891931355
437129.,0.1177677065,437129.,3.6260204315,437129.,0.3202464283
437149.,0.646930933,437149.,7.490916729,437149.,0.6397432089
437169.,0.6283034682,437169.,11.0801401138,437169.,1.1601353884
437189.,0.8501650095,437189.,14.7746896744,437189.,1.538253665
437209.,0.6791692972,437209.,18.1731185913,437209.,1.5560241938
437229.,0.9010140896,437229.,21.4930515289,437229.,1.6927638054
437249.,0.8886110187,437249.,24.6386814117,437249.,1.7529230118
437269.,0.7692047358,437269.,27.5452270508,437269.,1.9237561226
437289.,0.6867368221,437289.,29.6857128143,437289.,2.0494611263
437309.,0.9260917902,437309.,31.5862770081,437309.,2.6293027401
437329.,0.9003173709,437329.,33.3037796021,437329.,2.3640449047
437349.,1.0737425089,437349.,34.7703208923,437349.,2.5503077507
437369.,1.1703689098,437369.,36.0116386414,437369.,2.9209053516
437389.,1.4238938093,437389.,36.2845344543,437389.,2.7504317760
437409.,1.7276117802,437409.,36.0386695862,437409.,2.9208450317
437429.,1.7489143610,437429.,36.0340957642,437429.,2.6471073627
437449.,2.2192149162,437449.,35.2618331909,437449.,2.3168556690
437469.,2.1845991611,437469.,33.9497528076,437469.,2.5938861370
437489.,2.3919301033,437489.,32.6173934937,437489.,2.1863617897
437509.,2.4286117554,437509.,30.8019485474,437509.,2.2660405636
437529.,2.4361150265,437529.,28.4941864014,437529.,2.4983391762
437549.,2.5294127464,437549.,25.7545356750,437549.,1.8803359270
437569.,2.4035747051,437569.,22.9577522278,437569.,1.7235250473
437589.,2.0772132874,437589.,19.5266284943,437589.,1.5496966839
437609.,1.7671461105,437609.,16.4374065399,437609.,1.3834247589
437629.,1.5931822062,437629.,12.9730358124,437629.,1.1189302206
437649.,1.1734077930,437649.,9.1882667542,437649.,1.0515528917
437669.,1.067517519,437669.,5.3639049530,437669.,0.8108915687
437689.,0.8764549494,437689.,1.7377135754,437689.,0.5919249654
437709.,1.2681305408,437709.,-2.3023285866,437709.,0.0590532795
437729.,1.0795571804,437729.,-6.0824499130,437729.,-0.1765865088
437749.,1.0309120417,437749.,-9.8524713516,437749.,-0.4475046396
437769.,0.9015663862,437769.,-13.4980449677,437769.,-0.8180301785
437789.,1.0766966343,437789.,-17.0428180695,437789.,-1.1487935781
437809.,1.0509412289,437809.,-20.3645820618,437809.,-1.0719387531
437829.,1.0763994455,437829.,-23.4374809265,437829.,-1.2207852602
437849.,0.8606470227,437849.,-26.1333217621,437849.,-1.5538247824
437869.,0.7307469249,437869.,-28.5923309326,437869.,-1.8404998779
437889.,0.5746711493,437889.,-30.7391910553,437889.,-1.776059866
437909.,0.2951648533,437909.,-32.404586792,437909.,-1.9496344328
437929.,-0.0844876394,437929.,-33.8953514099,437929.,-1.9340518713
437949.,-0.4629170299,437949.,-35.1703414917,437949.,-1.9047547579
437969.,-0.8471431732,437969.,-35.3908538818,437969.,-2.1414942741
437989.,-1.3059891462,437989.,-35.9382858276,437989.,-2.0365762711
438009.,-1.5495227575,438009.,-35.5916328430,438009.,-1.9423213005
438029.,-1.4902354479,438029.,-35.3002014160,438029.,-1.7727087736
438049.,-1.9208940268,438049.,-33.8986701965,438049.,-1.8497765064
438069.,-2.0026781559,438069.,-32.7554931641,438069.,-1.8119933605
438089.,-1.7247121334,438089.,-31.0092048645,438089.,-1.7726905346
438109.,-1.7661314011,438109.,-28.8964939117,438109.,-1.5337684155
438129.,-1.6390839815,438129.,-26.1970710754,438129.,-1.319568038
438149.,-1.5421971083,438149.,-23.6341609955,438149.,-1.1996473074
438169.,-1.3509815931,438169.,-20.6101284027,438169.,-0.9022681117
438189.,-1.1223517656,438189.,-17.3593463898,438189.,-0.5898010135
438209.,-0.8180726767,438209.,-13.7025384903,438209.,-0.3485879302
438229.,-0.960071981,438229.,-9.9595012665,438229.,-0.2871148288
438249.,-0.5773786902,438249.,-6.5175008774,438249.,-0.0123314541
438269.,-0.8180856705,438269.,-2.9771692753,438269.,0.3473179042
438289.,-0.7968129516,438289.,1.0026984215,438289.,0.6531668901
438309.,-0.9966161847,438309.,4.763437748,438309.,0.7213301659
438329.,-0.8965666890,438329.,8.5585794449,438329.,0.8689595461
438349.,-1.079248786,438349.,12.2887248993,438349.,1.4071660042
438369.,-1.1075731516,438369.,15.7940731049,438369.,1.3732309341
438389.,-0.9274238944,438389.,18.9090671539,438389.,1.7099765539
438409.,-0.8434663415,438409.,22.1628265381,438409.,1.940089345
438429.,-0.5460447073,438429.,25.0268573761,438429.,1.9462648630
438449.,-0.2640660405,438449.,27.7957668304,438449.,2.1341073513
438469.,-0.0063083521,438469.,29.8311290741,438469.,2.3055665493
438489.,0.2928131521,438489.,31.8297157288,438489.,2.3287696838
438509.,0.8192226291,438509.,33.0472984314,438509.,2.5684525967
438529.,1.038890481,438529.,34.3780097961,438529.,2.6427550316
438549.,1.2566360235,438549.,35.0674591064,438549.,2.7394549847
438569.,1.3592338562,438569.,35.5455131531,438569.,2.7386691570
438589.,1.570127368,438589.,35.3969612122,438589.,2.3677532673
438609.,1.4044138193,438609.,35.0553855896,438609.,2.6449873447
438629.,1.6175857782,438629.,33.9348602295,438629.,2.487231493
438649.,1.4992538691,438649.,32.8080673218,438649.,2.4625062943
438669.,1.3943731785,438669.,30.9001235962,438669.,2.1597552299
438689.,1.4611936808,438689.,29.070930481,438689.,2.2553887367
438709.,1.2889473438,438709.,27.0500373840,438709.,2.0914702415
438729.,1.4113452435,438729.,24.226436615,438729.,2.275200367
438749.,1.6201577187,438749.,20.970703125,438749.,1.8912600279
438769.,1.5383166075,438769.,18.3033390045,438769.,1.6427558661
438789.,1.6940846443,438789.,14.6781349182,438789.,1.4183743000
438809.,1.8431445360,438809.,11.2865123749,438809.,1.1820732355
438829.,2.0513989925,438829.,7.4039440155,438829.,1.1182069778
438849.,1.9511330128,438849.,4.0325860977,438849.,0.4880924225
438869.,2.3852524757,438869.,0.3015820384,438869.,0.3227317035
438889.,2.4129917622,438889.,-3.5517601967,438889.,0.1614197195
438909.,2.3401620388,438909.,-7.5151023865,438909.,0.0631870925
438929.,2.4960269928,438929.,-11.1494626999,438929.,-0.4180473983
438949.,2.5138759613,438949.,-14.5064048767,438949.,-0.5643698573
438969.,2.2883863449,438969.,-17.7466049194,438969.,-1.1929106712
438989.,1.7875628471,438989.,-21.0396041870,438989.,-0.976418674
439009.,1.5556687117,439009.,-23.7031764984,439009.,-1.3705985546
439029.,1.0102564096,439029.,-26.3178119659,439029.,-1.4053311348
439049.,0.6138214469,439049.,-28.6481914520,439049.,-1.7010004520
439069.,0.5082316399,439069.,-31.1850795746,439069.,-1.7388690710
439089.,0.2309122086,439089.,-32.3911972046,439089.,-1.9474803209
439109.,0.1864627898,439109.,-33.5812492371,439109.,-1.9931452274
439129.,0.0907614827,439129.,-34.6109962463,439129.,-2.172570467
439149.,-0.2929992974,439149.,-35.1065216064,439149.,-2.1021769047
439169.,-0.1757810712,439169.,-35.1569519043,439169.,-2.120593071
439189.,-0.5014994740,439189.,-34.6069755554,439189.,-2.2660038471
439209.,-0.4057690203,439209.,-33.8154373169,439209.,-2.0276618004
439229.,-0.3228647113,439229.,-33.0951118469,439229.,-1.7970694304
439249.,-0.3398967981,439249.,-31.3789291382,439249.,-2.0409643650
439269.,-0.4508910775,439269.,-29.5957241058,439269.,-1.6003338099
439289.,-0.5838049650,439289.,-27.2186450958,439289.,-1.5811718702
439309.,-0.9055880904,439309.,-24.8414955139,439309.,-1.3768478632
439329.,-0.8218640089,439329.,-22.1055793762,439329.,-1.1023070812
439349.,-1.2085341215,439349.,-18.8614196777,439349.,-0.5497391224
439369.,-1.2970517874,439369.,-15.6517667770,439369.,-0.5459232330
439389.,-1.3367853165,439389.,-12.2694282532,439389.,-0.3453245759
439409.,-1.7533397675,439409.,-8.6129007339,439409.,-0.130508557
439429.,-1.7703819275,439429.,-4.8502254486,439429.,0.1603519469
439449.,-1.9106376171,439449.,-1.4554553032,439449.,0.4709700346
439469.,-1.6976826191,439469.,2.5243754387,439469.,0.3368254006
439489.,-1.6628819704,439489.,6.0331401825,439489.,0.7451984882
439509.,-1.5915993452,439509.,9.6646118164,439509.,1.2550742626
439529.,-1.3093498945,439529.,13.0329608917,439529.,1.4929581881
439549.,-0.8230934143,439549.,16.7391033173,439549.,1.6154952049
439569.,-0.9189993143,439569.,19.5294055939,439569.,1.7559750080
439589.,-0.6272147298,439589.,22.8105583191,439589.,2.0674564838
439609.,-0.5747944117,439609.,25.3221435547,439609.,2.0520439148
439629.,-0.4440972507,439629.,27.7507076263,439629.,2.54814744
439649.,-0.4821195602,439649.,29.8027210236,439649.,2.4592463970
439669.,-0.4327351749,439669.,31.7927646637,439669.,2.2430944443
439689.,-0.3050886393,439689.,33.0586700439,439689.,2.5094888210
439709.,-0.1212279126,439709.,34.1527671814,439709.,2.5082485676
439729.,-0.2621753216,439729.,34.5193977356,439729.,2.6763708591
439749.,-0.0357872471,439749.,34.9352836609,439749.,2.5961928368
439769.,-0.248486653,439769.,34.6663818359,439769.,2.4637775421
439789.,0.0379746482,439789.,34.0635490417,439789.,2.5226407051
439809.,-0.0071552414,439809.,33.002243042,439809.,2.4248085022
439829.,0.2726582885,439829.,31.5018177032,439829.,2.3419044018
439849.,0.6467740536,439849.,29.9154777527,439849.,2.1629109383
439869.,0.7186807990,439869.,27.9535217285,439869.,2.2298829556
439889.,1.0252501965,439889.,25.2086963654,439889.,1.9495848417
439909.,1.3686618805,439909.,22.4968242645,439909.,1.8245723248
439929.,1.8784611225,439929.,19.8457736969,439929.,1.4567804337
439949.,2.0538861752,439949.,16.7027816772,439949.,1.5301671028
439969.,1.8202738762,439969.,13.0760803223,439969.,1.3032462597
439989.,2.1830146313,439989.,9.7846012115,439989.,0.9233342409
440009.,2.3400421143,440009.,6.2655520439,440009.,0.537989676
440029.,2.3254880905,440029.,2.5972323418,440029.,0.1784988493
440049.,2.5192320347,440049.,-1.3126095533,440049.,0.3426453769
440069.,2.2570967674,440069.,-4.8074603081,440069.,0.0598460697
440089.,2.1377282143,440089.,-8.4037303925,440089.,-0.1639033556
440109.,1.9773362875,440109.,-12.1242752075,440109.,-0.3405733705
440129.,2.0212075710,440129.,-15.6054439545,440129.,-0.4606853127
440149.,1.8160375357,440149.,-18.6784210205,440149.,-0.4671497643
440169.,1.5917221308,440169.,-21.612449646,440169.,-0.9179962277
440189.,1.6395713091,440189.,-24.5793037415,440189.,-1.3913474083
440209.,1.6916277409,440209.,-26.9407196045,440209.,-1.3810571432
440229.,1.7528284788,440229.,-28.9344100952,440229.,-1.9897731543
440249.,1.6875007153,440249.,-30.8623294830,440249.,-2.1338751316
440269.,1.4464602470,440269.,-32.1176681519,440269.,-1.7277674675
440289.,1.6246089935,440289.,-33.4505844116,440289.,-2.0163068771
440309.,1.3094757795,440309.,-34.2701187134,440309.,-2.1166281700
440329.,1.3027052879,440329.,-34.3549766541,440329.,-1.9369729757
440349.,1.1526193619,440349.,-34.2377662659,440349.,-2.1002194881
440369.,0.9812585115,440369.,-34.0458374023,440369.,-2.0496022701
440389.,0.6183125973,440389.,-33.0404167175,440389.,-2.258497715
440409.,0.425128758,440409.,-31.7268238068,440409.,-1.9266836643
440429.,0.0480228402,440429.,-30.1320343018,440429.,-1.8175213337
440449.,-0.1933922023,440449.,-28.0350894928,440449.,-1.628158927
440469.,-0.4744438231,440469.,-26.1764640808,440469.,-1.5206736326
440489.,-0.7098282576,440489.,-23.0552616119,440489.,-1.2354531288
440509.,-0.8783254623,440509.,-20.5379066467,440509.,-0.8389419913
440529.,-0.986730814,440529.,-17.2161808014,440529.,-0.9490342140
440549.,-1.0634266138,440549.,-14.1661195755,440549.,-0.7870174646
440569.,-1.1758841276,440569.,-10.8704929352,440569.,-0.1926433444
440589.,-1.2369430065,440589.,-7.1215810776,440589.,-0.2122138292
440609.,-0.9959073663,440609.,-3.7684442997,440609.,0.3342638612
440629.,-0.9053127766,440629.,-0.1125789732,440629.,0.1929660589
440649.,-0.8986566067,440649.,3.5969676971,440649.,0.4706965387
440669.,-1.2000029087,440669.,7.278752327,440669.,1.0974041224
440689.,-0.9065102935,440689.,10.7853708267,440689.,1.2434017658
440709.,-0.9824721813,440709.,14.4064388275,440709.,1.057948947
440729.,-1.1179256439,440729.,17.5483207703,440729.,1.6128027439
440749.,-1.0524703264,440749.,20.7774353027,440749.,1.8630053997
440769.,-1.2296887636,440769.,23.3034381866,440769.,1.8908154964
440789.,-1.5967510939,440789.,25.9277820587,440789.,2.2366509438
440809.,-1.4353040457,440809.,28.1937637329,440809.,2.4528355598
440829.,-1.5682163239,440829.,30.3930587769,440829.,2.2906377316
440849.,-1.6207300425,440849.,31.8302898407,440849.,2.565943718
440869.,-1.7074760199,440869.,32.7785530090,440869.,2.8527100086
440889.,-1.4693872929,440889.,33.5422782898,440889.,2.6739325523
440909.,-1.2569681406,440909.,33.8537101746,440909.,2.7537217140
440929.,-1.0309491158,440929.,34.0586128235,440929.,2.6058690548
440949.,-0.843814075,440949.,33.7668991089,440949.,2.6814315319
440969.,-0.3270230591,440969.,32.9022827148,440969.,2.3786826134
440989.,-0.2906172872,440989.,31.7552375793,440989.,2.5619285107
441009.,0.0888389945,441009.,30.643693924,441009.,2.2208845615
441029.,0.4032675326,441029.,28.6225299835,441029.,2.4018673897
441049.,0.6005743146,441049.,26.5056667328,441049.,2.0594885349
441069.,0.6864647865,441069.,24.0384216309,441069.,1.8034902811
441089.,0.6664291024,441089.,21.414434433,441089.,1.6478472948
441109.,0.8700381517,441109.,18.2596950531,441109.,1.3961930275
441129.,0.9395090938,441129.,15.0147571564,441129.,1.1578309536
441149.,0.9554463625,441149.,11.7559299469,441149.,1.1245070696
441169.,1.2971575260,441169.,8.2016553879,441169.,1.0936852694
441189.,1.1125317812,441189.,4.7865405083,441189.,0.8491853476
441209.,1.3989008665,441209.,1.2704366446,441209.,0.2833582163
441229.,1.4963531494,441229.,-2.7299575806,441229.,-0.0918630213
441249.,1.6677706242,441249.,-5.9917502403,441249.,-0.1591198146
441269.,2.0013930798,441269.,-9.6598758698,441269.,-0.2149249911
441289.,2.0947201252,441289.,-12.9088325500,441289.,-0.4023002386
441309.,1.9064092636,441309.,-16.4365272522,441309.,-0.7884144187
441329.,2.5879299641,441329.,-19.5270061493,441329.,-1.1406246424
441349.,2.4023573399,441349.,-22.2248096466,441349.,-1.2304588556
441369.,2.4617912769,441369.,-24.8532218933,441369.,-1.5176709890
441389.,2.5156056881,441389.,-27.4646091461,441389.,-1.5798377991
441409.,2.7007861137,441409.,-29.1883964539,441409.,-1.7891778946
441429.,2.3270828724,441429.,-30.9176292419,441429.,-2.0030870438
441449.,2.3016865253,441449.,-32.2693519592,441449.,-1.8667324781
441469.,2.0448665619,441469.,-32.8354759216,441469.,-2.0423204899
441489.,1.7322245836,441489.,-33.4498329163,441489.,-1.8494695425
441509.,1.3972673416,441509.,-33.5001411438,441509.,-1.9920984507
441529.,1.077816844,441529.,-33.6102371216,441529.,-1.8788409233
441549.,1.291323185,441549.,-33.0650024414,441549.,-2.2763752937
441569.,0.8814911246,441569.,-31.9586143494,441569.,-2.1321194172
441589.,0.9890720844,441589.,-30.8060207367,441589.,-1.7591677904
441609.,0.6829933524,441609.,-28.7467861176,441609.,-1.8309689760
441629.,0.6071568727,441629.,-26.9580841064,441629.,-1.4731462002
441649.,0.4806936681,441649.,-24.839384079,441649.,-1.3280682564
441669.,0.5639055371,441669.,-22.0101623535,441669.,-1.6512670517
441689.,0.4757880569,441689.,-19.1864509583,441689.,-1.0923806429
441709.,0.6020639539,441709.,-16.0095462799,441709.,-0.7545213103
441729.,0.2840111256,441729.,-12.4602155685,441729.,-0.4950574934
441749.,0.0864082947,441749.,-9.0951213837,441749.,-0.1574566960
441769.,0.0209767204,441769.,-5.7351579666,441769.,-0.2734694481
441789.,0.0174876004,441789.,-2.1090760231,441789.,0.2553529441
441809.,-0.3372301161,441809.,1.3698982000,441809.,0.4371849895
441829.,-0.7096174359,441829.,5.1369562149,441829.,0.812281251
441849.,-0.9760090113,441849.,8.5864915848,441849.,0.8915090561
441869.,-1.1480758190,441869.,12.1368865967,441869.,1.2574617863
441889.,-1.311989069,441889.,15.0885429382,441889.,1.3579990864
441909.,-1.4896757603,441909.,18.3598442078,441909.,1.4352725744
441929.,-1.5959581137,441929.,21.0833721161,441929.,1.8529889584
441949.,-1.6121711731,441949.,23.8937435150,441949.,1.9326649904
441969.,-1.6458212137,441969.,26.2006092072,441969.,2.1481561661
441989.,-1.7455102205,441989.,28.3343315125,441989.,2.3140761852
442009.,-1.6762757301,442009.,29.9032039642,442009.,2.3378870487
442029.,-1.3784803152,442029.,31.1215076447,442029.,2.6545939445
442049.,-1.4622000456,442049.,32.0822563171,442049.,2.4122049809
442069.,-1.1687905788,442069.,32.9126739502,442069.,2.4501702785
442089.,-1.2849965096,442089.,33.2077064514,442089.,2.7138700485
442109.,-1.1017298698,442109.,33.2656402588,442109.,2.2330455780
442129.,-1.1540750265,442129.,32.8362045288,442129.,2.677336216
442149.,-0.8264702559,442149.,32.0369148254,442149.,2.1205770969
442169.,-0.9093018770,442169.,30.9869594574,442169.,2.1296160221
442189.,-0.6488289833,442189.,29.2035903931,442189.,2.2152798176
442209.,-1.0191245079,442209.,27.444770813,442209.,2.1504652500
442229.,-0.8063124418,442229.,25.1004085541,442229.,2.2073271275
442249.,-1.0006115437,442249.,22.3692378998,442249.,1.7464865446
442269.,-0.7567957044,442269.,19.9659881592,442269.,1.6499863863
442289.,-0.2745054066,442289.,16.7853393555,442289.,1.2948248386
442309.,-0.1234670356,442309.,13.4651298523,442309.,1.2673588991
442329.,-0.1961243004,442329.,10.1829080582,442329.,0.858283937
442349.,0.3471417725,442349.,6.6502079964,442349.,0.7259660363
442369.,0.7403841615,442369.,3.0825097561,442369.,0.507763207
442389.,0.9858275652,442389.,-0.3050577044,442389.,0.2744219005
442409.,1.3336901665,442409.,-3.8348736763,442409.,-0.0948827416
442429.,1.3910263777,442429.,-7.4908270836,442429.,-0.3279998600
442449.,1.6729438305,442449.,-11.0306959152,442449.,-0.3229325712
442469.,1.898734808,442469.,-14.1504831314,442469.,-0.4890684485
442489.,2.0751371384,442489.,-17.3024806976,442489.,-0.893435061
442509.,1.7877268791,442509.,-19.8849925995,442509.,-1.0559341908
442529.,2.1591172218,442529.,-22.4734630585,442529.,-1.3841906786
442549.,2.0824205875,442549.,-25.5668506622,442549.,-1.4944601059
442569.,1.9937912226,442569.,-27.2380409241,442569.,-1.6473439932
442589.,1.6682277918,442589.,-29.5020236969,442589.,-1.7989692688
442609.,1.6576838493,442609.,-30.8062915802,442609.,-1.5956249237
442629.,1.6470637321,442629.,-31.8026695251,442629.,-1.8956314325
442649.,1.7280089855,442649.,-32.7066726685,442649.,-1.8944914341
442669.,1.7949551344,442669.,-33.0922775269,442669.,-2.0261096954
442689.,1.6796813011,442689.,-33.0699729919,442689.,-2.2136814594
442709.,1.7277824879,442709.,-32.4911956787,442709.,-1.7211890221
442729.,2.0756723881,442729.,-32.0702209473,442729.,-1.9906822443
442749.,2.0142018795,442749.,-30.6030082703,442749.,-2.0915820599
442769.,2.2091233730,442769.,-29.2201786041,442769.,-2.1023612022
442789.,2.0031044483,442789.,-27.4531517029,442789.,-1.9052851200
442809.,1.883112669,442809.,-25.6069126129,442809.,-1.7485276461
442829.,1.7490611076,442829.,-22.9354324341,442829.,-1.6081701517
442849.,1.6334996223,442849.,-20.4332561493,442849.,-1.1456660032
442869.,1.3711171150,442869.,-17.3876724243,442869.,-0.8972845078
442889.,1.1631869078,442889.,-14.2477312088,442889.,-0.9944224954
442909.,1.1055699587,442909.,-11.4511737823,442909.,-0.5151111484
442929.,0.6440321803,442929.,-7.7593417168,442929.,-0.1087430194
442949.,0.5017428994,442949.,-4.3308010101,442949.,-0.0500811562
442969.,0.2195511758,442969.,-0.8251746893,442969.,0.3733389974
442989.,-0.0552474521,442989.,2.942950964,442989.,0.4889974594
443009.,-0.1117695943,443009.,5.9814867973,443009.,0.7836347818
443029.,-0.3835837841,443029.,9.5453205109,443029.,1.0166051388
443049.,-0.2633473277,443049.,12.9703655243,443049.,1.1135740280
443069.,-0.4322204292,443069.,16.1501960754,443069.,1.6360297203
443089.,-0.6093444824,443089.,18.8866443634,443089.,1.8724906445
443109.,-0.5250580311,443109.,21.5900936127,443109.,1.8562427759
443129.,-0.7308128476,443129.,24.0282287598,443129.,2.1187334061
443149.,-0.6064352393,443149.,26.7302970886,443149.,2.1164865494
443169.,-0.933000803,443169.,28.2035198212,443169.,2.2964608669
443189.,-0.8623971343,443189.,30.0728530884,443189.,2.2885758877
443209.,-1.2348459959,443209.,31.1570949554,443209.,2.4970166683
443229.,-1.267254591,443229.,31.9042987823,443229.,2.5429625511
443249.,-1.6153465509,443249.,32.4970779419,443249.,2.3999700546
443269.,-1.561691165,443269.,32.8048973083,443269.,2.6495394707
443289.,-1.6491076946,443289.,32.4111709595,443289.,2.5222938061
443309.,-1.9264996052,443309.,31.8110580444,443309.,2.4884300232
443329.,-2.1247251034,443329.,30.8164939880,443329.,2.4993410110
443349.,-1.5515619516,443349.,29.5134601593,443349.,2.3510830402
443369.,-1.858617425,443369.,27.7971439362,443369.,2.1816024780
443389.,-1.6392058134,443389.,25.6477031708,443389.,2.0683550835
443409.,-1.3168919086,443409.,23.7280044556,443409.,1.8858397007
443429.,-1.2827448845,443429.,20.9167194366,443429.,1.6218483448
443449.,-0.8813198805,443449.,18.1481933594,443449.,1.5937161446
443469.,-0.7906090021,443469.,15.1773519516,443469.,1.1871110201
443489.,-0.3709554970,443489.,11.9848985672,443489.,0.9955651164
443509.,-0.0436701700,443509.,8.9850826263,443509.,0.4060496688
443529.,-0.0924472883,443529.,5.1868329048,443529.,0.3160571754
443549.,0.0074706385,443549.,2.0262134075,443549.,0.2320095599
443569.,0.0391579643,443569.,-1.3569067717,443569.,0.0353201143
443589.,0.3786706030,443589.,-5.2339739799,443589.,-0.2440381944
443609.,0.2338740826,443609.,-8.4940795898,443609.,-0.1706623584
443629.,0.2528746724,443629.,-11.6292896271,443629.,-0.6793401837
443649.,0.5129836202,443649.,-14.9060811996,443649.,-0.7769516110
443669.,0.6141445041,443669.,-17.9973106384,443669.,-0.9565122128
443689.,0.9010241032,443689.,-20.7807998657,443689.,-0.9871203899
443709.,0.9307408929,443709.,-23.3977851868,443709.,-1.0978908539
443729.,0.9234261513,443729.,-25.6060009003,443729.,-1.4005670547
443749.,1.1463775635,443749.,-27.3189964294,443749.,-1.6646593809
443769.,1.4954919815,443769.,-29.2609863281,443769.,-1.6177134514
443789.,1.7187063694,443789.,-30.3749885559,443789.,-1.8710376024
443809.,1.6669530869,443809.,-31.8850421906,443809.,-1.9462646246
443829.,1.7944989204,443829.,-32.1203193665,443829.,-1.8661057949
443849.,2.1434340477,443849.,-32.5475997925,443849.,-2.0612459183
443869.,2.1342959404,443869.,-32.1713829041,443869.,-2.1466281414
443889.,2.1034445763,443889.,-31.5410861969,443889.,-1.9088819027
443909.,2.1827955246,443909.,-30.7309589386,443909.,-1.9770156145
443929.,2.1108837128,443929.,-29.6621131897,443929.,-2.0048263073
443949.,1.9355630875,443949.,-28.2698993683,443949.,-1.8185431957
443969.,2.1842176914,443969.,-26.254278183,443969.,-1.59205091
443989.,2.1055085659,443989.,-24.0373497009,443989.,-1.6429259777
444009.,1.6980036497,444009.,-21.6539821625,444009.,-1.4828031063
444029.,1.7671732903,444029.,-18.7585659027,444029.,-1.1918927431
444049.,1.6924679279,444049.,-15.8194770813,444049.,-1.0809013844
444069.,1.6765867472,444069.,-12.7245893478,444069.,-0.9230750799
444089.,1.5411429405,444089.,-9.5951013565,444089.,-0.4548126161
444109.,1.6216269732,444109.,-6.1868095398,444109.,-0.5926994085
444129.,1.7840272188,444129.,-2.7024893761,444129.,-0.3466484845
444149.,1.6114832163,444149.,0.7629781365,444149.,0.1635783911
444169.,1.4588215351,444169.,3.7542724609,444169.,0.3093177080
444189.,1.3277710676,444189.,7.1763291359,444189.,0.6793321967
444209.,1.0549865961,444209.,10.8871231079,444209.,0.8156073689
444229.,1.0204201937,444229.,13.9064216614,444229.,0.9674690366
444249.,0.5584078431,444249.,16.9477901459,444249.,1.4194232225
444269.,0.3363210857,444269.,20.0022754669,444269.,1.7915588617
444289.,0.1192004904,444289.,22.2628555298,444289.,2.0661525726
444309.,-0.3132197261,444309.,24.7799968719,444309.,2.0915489197
444329.,-0.7715263367,444329.,26.5322875977,444329.,2.3035542965
444349.,-0.5032106638,444349.,28.5363407135,444349.,2.1786410809
444369.,-0.8393647671,444369.,30.1222648621,444369.,2.5071806908
444389.,-1.0741425753,444389.,31.095451355,444389.,2.3659272194
444409.,-1.4050502777,444409.,31.5004844666,444409.,2.6386532784
444429.,-1.3106831312,444429.,31.7762355804,444429.,2.1898739338
444449.,-1.4161338806,444449.,31.9338512421,444449.,2.7099146843
444469.,-1.2738029957,444469.,31.7176494598,444469.,2.3907392025
444489.,-1.3988623619,444489.,30.9218368530,444489.,2.4864597321
444509.,-1.119345665,444509.,29.6368141174,444509.,2.2923693657
444529.,-0.9906955361,444529.,28.1207637787,444529.,2.0917232037
444549.,-1.2877849340,444549.,26.5295276642,444549.,2.1305620670
444569.,-1.2224938869,444569.,24.5771217346,444569.,2.0031328201
444589.,-1.1006276608,444589.,21.8805923462,444589.,1.4680451155
444609.,-1.2575705051,444609.,19.6523208618,444609.,1.6120659113
444629.,-1.1322085857,444629.,16.6342201233,444629.,1.0496377945
444649.,-1.4346988201,444649.,13.7799758911,444649.,1.0196413994
444669.,-1.3358992338,444669.,10.676024437,444669.,0.7710739374
444689.,-1.2454720736,444689.,7.2567844391,444689.,0.6261757016
444709.,-1.2679144144,444709.,4.1905584335,444709.,0.1890482754
444729.,-1.1490402222,444729.,0.6537861228,444729.,0.1771845818
444749.,-0.9119910002,444749.,-2.8612434864,444749.,-0.1281662136
444769.,-0.9561447501,444769.,-6.2387776375,444769.,-0.2491560280
444789.,-0.6301540732,444789.,-9.6192178726,444789.,-0.3159630597
444809.,-0.444203496,444809.,-12.7451086044,444809.,-0.6052086949
444829.,-0.4546884000,444829.,-15.8371086121,444829.,-0.5856220126
444849.,-0.1207050979,444849.,-18.8378372192,444849.,-1.1756987572
444869.,0.1002988964,444869.,-21.3820781708,444869.,-1.3651736975
444889.,0.4085826576,444889.,-23.9209823608,444889.,-1.3993256092
444909.,0.5791805387,444909.,-25.9122543335,444909.,-1.553914547
444929.,0.8648697734,444929.,-27.9484405518,444929.,-1.6169546843
444949.,0.9219785333,444949.,-29.0128898621,444949.,-1.632119298
444969.,0.9050934911,444969.,-30.3343696594,444969.,-1.8904855251
444989.,1.1018249989,444989.,-30.81798172,444989.,-2.0320475101
445009.,0.9987465739,445009.,-31.5785312653,445009.,-1.7267465591
445029.,1.1770715714,445029.,-31.5110855103,445029.,-1.7010154724
445049.,1.0779963732,445049.,-31.3927116394,445049.,-1.9252699614
445069.,1.0922983885,445069.,-30.8594169617,445069.,-1.9365882874
445089.,1.5525485277,445089.,-29.5827636719,445089.,-1.6777057648
445109.,1.3018013239,445109.,-28.1233921051,445109.,-1.8921297789
445129.,1.4784218073,445129.,-26.7384128571,445129.,-1.5337574482
445149.,1.6565800905,445149.,-24.8252620697,445149.,-1.6693116426
445169.,1.9353164434,445169.,-22.3795433044,445169.,-1.7046512365
445189.,2.2292523384,445189.,-20.100605011,445189.,-1.3941665888
445209.,2.0710775852,445209.,-17.3603725433,445209.,-1.1004719734
445229.,2.5095055103,445229.,-14.2803983688,445229.,-1.0116149187
445249.,2.3658063412,445249.,-11.1981754303,445249.,-0.7751171589
445269.,2.3571834564,445269.,-7.7322182655,445269.,-0.5824640989
445289.,2.5705640316,445289.,-4.8755922318,445289.,-0.2709346116
445309.,2.3920817375,445309.,-1.7949918509,445309.,-0.1284455508
445329.,2.1212291718,445329.,1.9736342430,445329.,0.3395142853
445349.,1.9602366686,445349.,5.4232625961,445349.,0.3190383911
445369.,1.5488117933,445369.,8.5058708191,445369.,0.5809105635
445389.,1.5222628117,445389.,11.6231851578,445389.,0.9083872437
445409.,1.4131820202,445409.,14.5972337723,445409.,0.8343008161
445429.,1.1693021059,445429.,17.6559867859,445429.,1.0902072191
445449.,0.8722518682,445449.,20.2480945587,445449.,1.4062774181
445469.,0.8764001727,445469.,22.4367141724,445469.,1.6122312546
445489.,0.5582315326,445489.,24.944355011,445489.,1.6962906122
445509.,0.7522113323,445509.,26.6494216919,445509.,2.1081469059
445529.,0.4661898613,445529.,28.4498996735,445529.,2.3454544544
445549.,0.2034623176,445549.,29.65366745,445549.,2.2680363655
445569.,0.2295815498,445569.,30.3821773529,445569.,2.0642156601
445589.,-0.0007770881,445589.,31.0037841797,445589.,2.0374395847
445609.,-0.1607121527,445609.,31.3213386536,445609.,2.2770292759
445629.,-0.2100300789,445629.,31.0746803284,445629.,2.3347377777
445649.,-0.5406647325,445649.,30.4100093842,445649.,2.3078904152
445669.,-0.6137337685,445669.,29.5226268768,445669.,2.3894824982
445689.,-0.7193936706,445689.,28.5594596863,445689.,2.4572143555
445709.,-0.9686745405,445709.,26.9487056732,445709.,2.1212909222
445729.,-0.9807943702,445729.,25.0941772461,445729.,1.9075838327
445749.,-1.3788249493,445749.,23.1258354187,445749.,1.6422728300
445769.,-1.5372630358,445769.,20.5308437347,445769.,1.7036206722
445789.,-1.6580839157,445789.,17.9315357208,445789.,1.4422494173
445809.,-1.6730847359,445809.,15.142906189,445809.,1.0700427294
445829.,-1.7031372786,445829.,11.8936405182,445829.,1.0277760029
445849.,-1.5036965609,445849.,9.074798584,445849.,0.8797163367
445869.,-1.3869886398,445869.,5.5587162971,445869.,0.8627097011
445889.,-1.3747721910,445889.,2.2387313843,445889.,0.4926646352
445909.,-1.1648749113,445909.,-0.8228722811,445909.,0.1510867625
445929.,-1.055257082,445929.,-4.2126207352,445929.,-0.0605473369
445949.,-0.9420927167,445949.,-7.621963501,445949.,-0.2052212656
445969.,-0.8765099645,445969.,-10.7240571976,445969.,-0.5473420024
445989.,-0.8908718824,445989.,-13.8030481339,445989.,-0.8224555254
446009.,-0.7312524915,446009.,-16.7499008179,446009.,-1.1815772057
446029.,-0.7307460308,446029.,-19.0792903900,446029.,-1.1838965416
446049.,-0.5763579011,446049.,-21.6377925873,446049.,-1.2990515232
446069.,-0.5478543043,446069.,-23.9058151245,446069.,-1.3061258793
446089.,-0.5332790613,446089.,-26.0541191101,446089.,-1.5439841747
446109.,-0.5612844229,446109.,-27.6540699005,446109.,-1.7926999331
446129.,-0.4649452865,446129.,-28.9463520050,446129.,-1.5947865248
446149.,-0.2109054476,446149.,-29.9670333862,446149.,-1.7566597462
446169.,-0.3457599282,446169.,-30.4981708527,446169.,-1.4812709093
446189.,-0.0592010692,446189.,-30.9560832977,446189.,-1.5748391151
446209.,0.0896844640,446209.,-30.6642513275,446209.,-2.000538826
446229.,0.3622744679,446229.,-30.4156112671,446229.,-2.0640282631
446249.,0.6951841712,446249.,-29.5473937988,446249.,-1.7870299816
446269.,0.9949010015,446269.,-28.3672428131,446269.,-2.0363006592
446289.,0.9648465514,446289.,-26.9571228027,446289.,-1.8808202744
446309.,1.3637889624,446309.,-25.3327083588,446309.,-1.5120527744
446329.,1.6483473778,446329.,-23.2312622070,446329.,-1.6027446985
446349.,1.7675385475,446349.,-20.9379615784,446349.,-1.2520537376
446369.,1.7000836134,446369.,-18.5628414154,446369.,-1.2923774719
446389.,1.9569661617,446389.,-15.7905607224,446389.,-1.0997399092
446409.,1.8780080080,446409.,-12.6586837769,446409.,-0.7747708559
446429.,1.7562743425,446429.,-9.5491762161,446429.,-0.6136196256
446449.,1.9728633165,446449.,-6.5210595131,446449.,-0.4896388054
446469.,2.0650706291,446469.,-3.1083586216,446469.,-0.0625026822
446489.,1.8667806387,446489.,-0.0747164339,446489.,-0.0028000204
446509.,2.0073926449,446509.,3.4199466705,446509.,0.3159318268
446529.,2.053604126,446529.,6.4530897141,446529.,0.4848668277
446549.,1.9837201834,446549.,9.6043863297,446549.,0.8074056506
446569.,2.0359914303,446569.,12.5163660049,446569.,0.6871337891
446589.,1.807749033,446589.,15.6633729935,446589.,1.2035075426
446609.,1.9474710226,446609.,18.2196407318,446609.,1.1047667265
446629.,1.900711298,446629.,20.8560142517,446629.,1.5512485504
446649.,1.8346226215,446649.,23.4369506836,446649.,1.6886464357
446669.,1.5811061859,446669.,25.4596920013,446669.,1.7364246845
446689.,1.4946469069,446689.,26.6641101837,446689.,1.7294129133
446709.,1.1616142988,446709.,28.2800922394,446709.,2.2883741856
446729.,1.2791746855,446729.,29.3475170135,446729.,2.1295902729
446749.,1.08122015,446749.,30.0594100952,446749.,2.1218874454
446769.,0.7379372716,446769.,30.5995941162,446769.,2.1844000816
446789.,0.2958569825,446789.,30.3952503204,446789.,2.4368579388
446809.,0.1282626987,446809.,30.1816959381,446809.,2.2414076328
446829.,0.0724997520,446829.,29.6921386719,446829.,2.1442532539
446849.,-0.1136634424,446849.,28.7172088623,446849.,1.9928851128
446869.,-0.4013799131,446869.,27.6922397614,446869.,1.9006227255
446889.,-0.4257316589,446889.,25.7048377991,446889.,2.0023031235
446909.,-0.4855911732,446909.,23.6002979279,446909.,1.8447023630
446929.,-0.684081018,446929.,21.3254280090,446929.,1.4896517992
446949.,-0.5607839227,446949.,19.1141109467,446949.,1.6192157269
446969.,-0.7922635078,446969.,16.3512039185,446969.,1.5805190802
446989.,-0.7936474681,446989.,13.5323619843,446989.,1.2852919102
447009.,-0.7818379998,447009.,10.5836076736,447009.,1.0298243761
447029.,-0.7226623893,447029.,7.5548272133,447029.,0.6558870673
447049.,-0.7058237195,447049.,4.4579911232,447049.,0.4650620520
447069.,-1.0167831182,447069.,1.1560207605,447069.,0.4087341428
447089.,-1.1070916653,447089.,-2.3599665165,447089.,0.0675728470
447109.,-1.2588189840,447109.,-5.3429012299,447109.,-0.2378516048
447129.,-1.3456773758,447129.,-8.4813909531,447129.,-0.1292076856
447149.,-1.1992539167,447149.,-11.7705125809,447149.,-0.7911559343
447169.,-1.6647104025,447169.,-14.588259697,447169.,-0.8044666648
447189.,-1.4993848801,447189.,-17.276134491,447189.,-1.0472273827
447209.,-1.4190561771,447209.,-19.9241600037,447209.,-0.9690935016
447229.,-1.4148814678,447229.,-22.2242946625,447229.,-1.2636312246
447249.,-1.3599305153,447249.,-24.2985191345,447249.,-1.2948915958
447269.,-1.3037502766,447269.,-25.7782001495,447269.,-1.5099878311
447289.,-1.1173657179,447289.,-27.7825241089,447289.,-1.8325076103
447309.,-1.0024349689,447309.,-28.6429157257,447309.,-1.7095168829
447329.,-0.6881185770,447329.,-29.8348674774,447329.,-1.5723996162
447349.,-0.5923298001,447349.,-30.2522392273,447349.,-1.8515648842
447369.,-0.5286785960,447369.,-30.2271213531,447369.,-2.0225753784
447389.,-0.0893518254,447389.,-30.1483688354,447389.,-1.7188072205
447409.,0.2049084902,447409.,-29.485742569,447409.,-1.5136743784
447429.,-0.0215019621,447429.,-28.5528354645,447429.,-1.6910151243
447449.,0.3599951267,447449.,-27.4065208435,447449.,-1.5659818649
447469.,0.3947945237,447469.,-25.8116016388,447469.,-1.6712957621
447489.,0.6193444133,447489.,-24.1068840027,447489.,-1.4709101915
447509.,0.3856405914,447509.,-21.851020813,447509.,-1.247910738
447529.,0.4443553686,447529.,-19.8023624420,447529.,-1.1349147558
447549.,0.7060344219,447549.,-17.0776062012,447549.,-1.0352667570
447569.,0.9204638004,447569.,-14.1731939316,447569.,-0.9539791942
447589.,1.0774652958,447589.,-11.2323865891,447589.,-0.7107105851
447609.,1.4173179865,447609.,-8.2848052979,447609.,-0.6474871635
447629.,1.5547206402,447629.,-5.1447763443,447629.,-0.0465876572
447649.,1.5445046425,447649.,-2.1267542839,447649.,-0.1639024466
447669.,1.6227214336,447669.,1.3133592606,447669.,0.0036124627
447689.,2.0044894218,447689.,4.7493400574,447689.,0.2786756456
447709.,2.1946661472,447709.,7.3587021828,447709.,0.6374704242
447729.,2.1456243992,447729.,10.6499776840,447729.,0.6562417746
447749.,2.2518327236,447749.,13.8570251465,447749.,1.0689463615
447769.,2.3885295391,447769.,16.4051399231,447769.,1.1385905743
447789.,2.0532131195,447789.,18.9985675812,447789.,1.2223246098
447809.,2.0867986679,447809.,21.6068611145,447809.,1.5572253466
447829.,1.9911097288,447829.,23.7426719666,447829.,1.5273981094
447849.,2.0126347542,447849.,25.3531665802,447849.,1.8385914564
447869.,1.6646801233,447869.,27.4671440125,447869.,1.8261352777
447889.,1.6138911247,447889.,28.2579860687,447889.,1.9843510389
447909.,1.4842127562,447909.,28.9370765686,447909.,2.2490744591
447929.,1.2540977001,447929.,29.8058338165,447929.,2.3532848358
447949.,1.3049184084,447949.,29.8017730713,447949.,2.2703022957
447969.,1.1907697916,447969.,30.0413913727,447969.,2.0630908012
447989.,1.1599168777,447989.,29.4988689423,447989.,1.9396353960
448009.,1.1078125238,448009.,28.6144599915,448009.,1.8726080656
448029.,1.0557700396,448029.,27.3006725311,448029.,2.2439179420
448049.,0.7756631970,448049.,26.0406150818,448049.,1.9926519394
448069.,0.7135508657,448069.,24.2612037659,448069.,1.8062598705
448089.,0.5555738807,448089.,22.4354057312,448089.,1.8709367514
448109.,0.5273473263,448109.,19.9816017151,448109.,1.6294419765
448129.,0.2423396558,448129.,17.6336612701,448129.,1.5663927794
448149.,-0.0201134346,448149.,15.0652198792,448149.,1.3522515297
448169.,0.1511466652,448169.,11.9245243073,448169.,0.7913179398
448189.,-0.4193777442,448189.,8.9278345108,448189.,0.6861465573
448209.,-0.4336621463,448209.,5.9315180779,448209.,0.5378618836
448229.,-0.5095860362,448229.,2.8481078148,448229.,0.2943349183
448249.,-0.940636158,448249.,-0.5527532101,448249.,0.2761742473
448269.,-0.9008990526,448269.,-3.7609512806,448269.,0.1115548834
448289.,-1.0210616589,448289.,-6.9351406097,448289.,-0.2020103782
448309.,-1.1545051336,448309.,-9.9909067154,448309.,-0.3633865714
448329.,-1.2432032824,448329.,-13.0092868805,448329.,-0.7355106473
448349.,-1.2829338312,448349.,-15.6529407501,448349.,-0.9948655963
448369.,-1.3717932701,448369.,-18.3707714081,448369.,-0.9282357693
448389.,-1.0790981054,448389.,-20.5182762146,448389.,-1.0192970037
448409.,-1.3703500032,448409.,-22.7300815582,448409.,-1.1182236671
448429.,-1.1402764320,448429.,-24.7145195007,448429.,-1.4534790516
448449.,-1.3743317127,448449.,-26.1678543091,448449.,-1.6738681793
448469.,-1.339209199,448469.,-27.7564067841,448469.,-1.6546150446
448489.,-1.1857765913,448489.,-28.7217445374,448489.,-1.6005910635
448509.,-1.2744460106,448509.,-29.3219718933,448509.,-1.7200052738
448529.,-1.0979144573,448529.,-29.6903839111,448529.,-1.892844677
448549.,-1.2516220808,448549.,-29.6925964355,448549.,-1.5773195028
448569.,-1.1084792614,448569.,-29.3448791504,448569.,-1.5955445766
448589.,-1.014454484,448589.,-28.5883693695,448589.,-1.564406395
448609.,-1.1693749428,448609.,-27.5107364655,448609.,-1.6381108761
448629.,-0.9342905283,448629.,-26.3818092346,448629.,-1.2892284393
448649.,-0.6700950861,448649.,-24.6787281036,448649.,-1.4321062565
448669.,-0.4180615842,448669.,-22.6234169006,448669.,-1.3379433155
448689.,-0.4187280536,448689.,-20.4399795532,448689.,-1.0388796329
448709.,-0.1473520696,448709.,-18.1749382019,448709.,-1.0817369223
448729.,0.3142026961,448729.,-15.3634147644,448729.,-0.5629373789
448749.,0.6558632851,448749.,-12.7085294724,448749.,-0.7117086053
448769.,0.9094511271,448769.,-9.8391075134,448769.,-0.3775171936
448789.,0.8744091392,448789.,-6.8042645454,448789.,-0.2449229807
448809.,0.8613603115,448809.,-3.6201350689,448809.,-0.1768812686
448829.,1.0111829042,448829.,-0.5686815381,448829.,0.2773259282
448849.,1.212017417,448849.,2.8248269558,448849.,0.4791604578
448869.,1.2149996758,448869.,5.8780999184,448869.,0.5859898925
448889.,1.4577394724,448889.,8.7848567963,448889.,0.573540926
448909.,1.4860767126,448909.,11.9075202942,448909.,0.5062894225
448929.,1.383898139,448929.,14.7028970718,448929.,1.0984978676
448949.,1.5630339384,448949.,17.5527362823,448949.,1.2039606571
448969.,1.7236096859,448969.,19.619386673,448969.,1.3482519388
448989.,1.5211789608,448989.,21.9346065521,448989.,1.7318814993
449009.,1.5596979856,449009.,24.1162433624,449009.,1.7570433617
449029.,1.8490192890,449029.,25.6659584045,449029.,1.8256163597
449049.,1.8184030056,449049.,26.9037532806,449049.,2.0185265541
449069.,2.1034300327,449069.,28.1982574463,449069.,2.1381835938
449089.,1.9621697664,449089.,28.7521076202,449089.,2.2831420898
449109.,1.8814005852,449109.,29.3389720917,449109.,2.2966387272
449129.,2.1488466263,449129.,29.5190868378,449129.,2.3116703033
449149.,1.9086824656,449149.,29.0741596222,449149.,2.0470502377
449169.,1.8807874918,449169.,28.8740959167,449169.,2.1668593884
449189.,1.7768917084,449189.,27.4087543488,449189.,2.0651061535
449209.,1.7592782974,449209.,26.4539566040,449209.,1.6910004616
449229.,1.6196748018,449229.,24.8248310089,449229.,2.1301784515
449249.,1.5754964352,449249.,23.0245628357,449249.,1.8641976118
449269.,1.3289134502,449269.,20.7806758881,449269.,1.6036498547
449289.,1.0921615362,449289.,18.5014953613,449289.,1.9581568241
449309.,1.0032279491,449309.,16.2007102966,449309.,1.4389330149
449329.,0.8263363242,449329.,13.1962070465,449329.,1.0304732323
449349.,0.6054179668,449349.,10.5816955566,449349.,0.9918344617
449369.,0.4763278365,449369.,7.6862635612,449369.,0.9627533555
449389.,0.6038984060,449389.,4.3523111343,449389.,0.5405452847
449409.,0.243166104,449409.,1.2289787531,449409.,0.4885262847
449429.,0.3786473572,449429.,-1.7372682095,449429.,0.0683627650
449449.,-0.0539127849,449449.,-4.8295702934,449449.,-0.1415828168
449469.,0.1078390256,449469.,-8.1704530716,449469.,0.0299274866
449489.,-0.2313801348,449489.,-10.8684759140,449489.,-0.3907316923
449509.,-0.5139497519,449509.,-13.9108486176,449509.,-0.5800080895
449529.,-0.2851266563,449529.,-16.3710174561,449529.,-0.8689683676
449549.,-0.4018700719,449549.,-18.7303009033,449549.,-0.9504572749
449569.,-0.7878831029,449569.,-20.8983001709,449569.,-1.1807588339
449589.,-0.8985639811,449589.,-22.8223896027,449589.,-1.1781804562
449609.,-1.243021369,449609.,-24.5748462677,449609.,-1.1138349771
449629.,-1.5504126549,449629.,-26.2328968048,449629.,-1.6593196392
449649.,-1.5348504782,449649.,-27.4767494202,449649.,-1.6877031326
449669.,-1.4695215225,449669.,-28.1475296021,449669.,-1.5079286098
449689.,-1.3969353437,449689.,-28.7198982239,449689.,-1.9028067589
449709.,-1.4146500826,449709.,-29.128988266,449709.,-1.4736814499
449729.,-1.3776444197,449729.,-28.8885326385,449729.,-1.7571473122
449749.,-1.4745754004,449749.,-28.4232082367,449749.,-1.6314617395
449769.,-1.3965183496,449769.,-27.4558258057,449769.,-1.7409099340
449789.,-0.9680083990,449789.,-26.4344253540,449789.,-1.4029713869
449809.,-1.0306780338,449809.,-25.1287822723,449809.,-1.2549567223
449829.,-1.0100166798,449829.,-23.0237388611,449829.,-1.17530334
449849.,-0.9486775994,449849.,-21.3833179474,449849.,-1.3015530109
449869.,-0.6631000638,449869.,-19.0729980469,449869.,-0.9816322923
449889.,-0.6387966871,449889.,-16.669960022,449889.,-0.8046839237
449909.,-0.5653787851,449909.,-13.868724823,449909.,-0.6480656266
449929.,-0.5236387849,449929.,-10.991268158,449929.,-0.2752931118
449949.,-0.1516471505,449949.,-8.3434734344,449949.,-0.1532302052
449969.,-0.3717303276,449969.,-5.1560745239,449969.,-0.1289745271
449989.,0.0019769294,449989.,-2.3818349838,449989.,-0.0316083580
450009.,-0.1039457992,450009.,1.1506040096,450009.,0.0079451445
450029.,-0.0326324776,450029.,4.2180352211,450029.,0.3433567286
450049.,0.3178749979,450049.,7.0737175941,450049.,1.0198571682
450069.,0.5019419789,450069.,10.0812854767,450069.,1.0926892757
450089.,0.6686669588,450089.,12.8970823288,450089.,0.9822630286
450109.,0.6168012619,450109.,15.5436534882,450109.,1.1064352989
450129.,0.9267334342,450129.,18.2358283997,450129.,1.4186162949
450149.,1.2852560282,450149.,20.3522453308,450149.,1.5633291006
450169.,1.2600301504,450169.,22.2102432251,450169.,1.3466972113
450189.,1.4911453724,450189.,24.0893630981,450189.,1.9869800806
450209.,1.5667530298,450209.,25.4478416443,450209.,1.9885286093
450229.,1.6422319412,450229.,26.8796005249,450229.,2.1968536377
450249.,1.7475895882,450249.,27.6616306305,450249.,1.9051016569
450269.,1.7081851959,450269.,28.3989715576,450269.,2.0828559399
450289.,1.646928072,450289.,28.8002586365,450289.,2.0368144512
450309.,1.8168356419,450309.,28.7958297729,450309.,2.1141829491
450329.,1.7543321848,450329.,28.0155658722,450329.,2.2074718475
450349.,1.9242674112,450349.,27.6212272644,450349.,2.1788764
450369.,1.9074248075,450369.,26.3299198151,450369.,2.0694415569
450389.,1.8133237362,450389.,25.4755344391,450389.,1.9859327078
450409.,2.0710601807,450409.,23.5153217316,450409.,1.9892840385
450429.,1.8353515863,450429.,21.7177371979,450429.,1.7564871311
450449.,1.5953103304,450449.,19.54388237,450449.,1.6140623093
450469.,2.0891709328,450469.,17.1917171478,450469.,1.5191464424
450489.,1.8993481398,450489.,14.4340934753,450489.,1.3954360485
450509.,2.0637516975,450509.,11.8261013031,450509.,1.1618057489
450529.,1.6465702057,450529.,8.9397516251,450529.,1.0729296207
450549.,1.6755723953,450549.,5.9874644279,450549.,0.5869247913
450569.,1.3553277254,450569.,3.0862126350,450569.,0.6696506143
450589.,1.1183718443,450589.,-0.0020117683,450589.,0.3483680785
450609.,1.2992240191,450609.,-3.1685597897,450609.,0.2841808796
450629.,0.7502662539,450629.,-6.0620636940,450629.,0.0399953499
450649.,0.6771003008,450649.,-9.1605873108,450649.,-0.3462089896
450669.,0.4842954576,450669.,-11.9399652481,450669.,-0.392372638
450689.,0.2008775622,450689.,-14.3720607758,450689.,-0.7351232767
450709.,-0.0954505801,450709.,-17.1100673676,450709.,-0.9007035494
450729.,-0.027508162,450729.,-19.5399360657,450729.,-1.2123246193
450749.,-0.3178365529,450749.,-21.5892963409,450749.,-1.2824360132
450769.,-0.3607729375,450769.,-23.5673408508,450769.,-1.1272598505
450789.,-0.6939179897,450789.,-25.206237793,450789.,-1.3122887611
450809.,-0.774538219,450809.,-26.3253822327,450809.,-1.6109125614
450829.,-0.7354824543,450829.,-27.3925247192,450829.,-1.5012464523
450849.,-0.8733855486,450849.,-28.0408096313,450849.,-1.6655485630
450869.,-1.0632686615,450869.,-28.4846763611,450869.,-1.4100779295
450889.,-1.0474821329,450889.,-28.5561561584,450889.,-1.7522636652
450909.,-0.8082531691,450909.,-28.2457618713,450909.,-1.4640440941
450929.,-1.1392251253,450929.,-27.455696106,450929.,-1.5643074512
450949.,-1.24941957,450949.,-26.6237316132,450949.,-1.3529744148
450969.,-1.3014302254,450969.,-25.301776886,450969.,-1.320360899
450989.,-1.0420311689,450989.,-23.5297279358,450989.,-1.2633857727
451009.,-1.2118140459,451009.,-21.8164463043,451009.,-1.1073147058
451029.,-1.1494615078,451029.,-19.7928066254,451029.,-1.1687089205
451049.,-1.4469203949,451049.,-17.4742431641,451049.,-0.7788227797
451069.,-1.2066631317,451069.,-15.1119098663,451069.,-0.7737331390
451089.,-1.2524594069,451089.,-12.8111515045,451089.,-0.5430495739
451109.,-1.1803404093,451109.,-9.7913932800,451109.,-0.1826354116
451129.,-1.1147065163,451129.,-6.8838920593,451129.,-0.1030987352
451149.,-0.6731136441,451149.,-3.5975103378,451149.,0.3310733438
451169.,-0.8731117249,451169.,-0.6077277660,451169.,0.2545932829
451189.,-0.6579233408,451189.,2.0633647442,451189.,0.3861749172
451209.,-0.587823391,451209.,5.1968150139,451209.,0.7860991359
451229.,-0.2558312118,451229.,8.2408103943,451229.,0.9171775579
451249.,-0.3229288757,451249.,10.9969043732,451249.,1.0158194304
451269.,-0.1294982880,451269.,13.980550766,451269.,1.2116312981
451289.,-0.0823822170,451289.,16.2386245728,451289.,1.5174771547
451309.,0.1023077667,451309.,18.9196014404,451309.,1.4499140978
451329.,0.2896302044,451329.,20.7533473969,451329.,1.6287555695
451349.,0.3193449974,451349.,22.8050880432,451349.,1.4853457212
451369.,0.6481005549,451369.,24.3064136505,451369.,1.8291474581
451389.,0.4666783214,451389.,25.8637294769,451389.,1.9108355045
451409.,0.6671311259,451409.,26.8709316254,451409.,2.0324866772
451429.,0.7778640389,451429.,27.7552795410,451429.,1.7183939219
451449.,0.7367323041,451449.,28.0730514526,451449.,2.2397716045
451469.,1.00657022,451469.,28.1018733978,451469.,2.4696073532
451489.,1.3642122746,451489.,27.884305954,451489.,1.9774779081
451509.,1.5190023184,451509.,27.276632309,451509.,2.0160837173
451529.,1.7605750561,451529.,26.769405365,451529.,1.8335692883
451549.,1.869381547,451549.,25.6090602875,451549.,1.9115902185
451569.,1.7241274118,451569.,23.9104976654,451569.,1.8735249043
451589.,2.0658049583,451589.,22.3540821075,451589.,1.6792414188
451609.,1.8659763336,451609.,20.0337085724,451609.,1.6230792999
451629.,2.0419721603,451629.,17.9988899231,451629.,1.5192662477
451649.,2.1922914982,451649.,15.6159858704,451649.,1.256731391
451669.,1.9884293079,451669.,13.1879186630,451669.,0.8872225285
451689.,2.0368814468,451689.,10.4236135483,451689.,0.9380776882
451709.,1.9680628777,451709.,7.5873365402,451709.,0.8806166649
451729.,1.9290485382,451729.,4.6355986595,451729.,0.2163864225
451749.,1.7488607168,451749.,1.6384449005,451749.,0.2917709351
451769.,1.6200958490,451769.,-1.5173444748,451769.,0.1289248317
451789.,1.6794290543,451789.,-4.4999871254,451789.,-0.0393615738
451809.,1.4353687763,451809.,-7.4025249481,451809.,-0.0262889061
451829.,1.2550568581,451829.,-10.3204612732,451829.,-0.1399592161
451849.,1.2015607357,451849.,-12.9079570770,451849.,-0.6433013678
