gyro.x_x,gyro.x_y,gyro.y_x,gyro.y_y,gyro.z_x,gyro.z_y
435630.,0.8792613745,435630.,-22.8746452332,435630.,-1.3139638901
435650.,0.9234470725,435650.,-25.9023494720,435650.,-1.6047462225
435670.,0.3158620894,435670.,-28.9304618835,435670.,-1.7626744509
435690.,0.0637900308,435690.,-31.6949825287,435690.,-1.9499732256
435710.,-0.3577405810,435710.,-34.2785682678,435710.,-1.8827561140
435730.,-0.8266199231,435730.,-36.3975715637,435730.,-1.9961843491
435750.,-1.1357543468,435750.,-39.0575294495,435750.,-2.2385430336
435770.,-1.5198441744,435770.,-40.5048103333,435770.,-2.2976732254
435790.,-1.2817224264,435790.,-41.5761337280,435790.,-2.747171402
435810.,-0.9484031200,435810.,-42.9723548889,435810.,-2.556355238
435830.,-0.7745172381,435830.,-44.0873031616,435830.,-2.7091674805
435850.,-0.2003692389,435850.,-44.5882682800,435850.,-2.6834101677
435870.,0.4781261981,435870.,-44.8811950684,435870.,-2.9096941948
435890.,0.9657239318,435890.,-45.0732536316,435890.,-2.9902722836
435910.,1.8864048719,435910.,-44.7411384583,435910.,-2.8218758106
435930.,2.4746110439,435930.,-44.2594871521,435930.,-3.0539186001
435950.,2.6205596924,435950.,-43.3817481995,435950.,-2.8908145428
435970.,2.9420473576,435970.,-42.2232780457,435970.,-2.5952451229
435990.,3.0542521477,435990.,-40.3772315979,435990.,-2.4572267532
436010.,2.8790256977,436010.,-38.8659286499,436010.,-2.3905239105
436030.,2.7333707809,436030.,-37.0032539368,436030.,-2.4057979584
436050.,2.0562052727,436050.,-34.2979011536,436050.,-2.2616541386
436070.,1.6688084602,436070.,-31.8724384308,436070.,-2.1341066360
436090.,1.2342767715,436090.,-29.3786087036,436090.,-1.8313962221
436110.,0.8373892307,436110.,-25.8828659058,436110.,-1.6334321499
436130.,0.3785225749,436130.,-23.2032260895,436130.,-1.7423559427
436150.,0.0568743236,436150.,-19.9784679413,436150.,-1.2738233805
436170.,-0.1154457107,436170.,-16.621213913,436170.,-0.9543949366
436190.,0.2047674358,436190.,-13.0065307617,436190.,-0.3647277355
436210.,0.3605080247,436210.,-9.6378622055,436210.,-0.6368342042
436230.,0.7049646974,436230.,-6.0220184326,436230.,-0.2689053714
436250.,1.0269783735,436250.,-2.1920411587,436250.,-0.1668724716
436270.,1.4568985701,436270.,1.3936972618,436270.,0.4039563835
436290.,1.9850891829,436290.,5.186480999,436290.,0.3694156408
436310.,1.9834736586,436310.,8.7541570663,436310.,0.6940831542
436330.,1.9979871511,436330.,12.3122520447,436330.,1.1721638441
436350.,2.0313987732,436350.,15.8730926514,436350.,1.2131652832
436370.,1.802128315,436370.,19.2023582458,436370.,1.3050560951
436390.,1.2348638773,436390.,22.6691246033,436390.,1.5329196453
436410.,0.805200398,436410.,25.6617336273,436410.,1.7976943254
436430.,0.3977618217,436430.,28.5722503662,436430.,2.0501346588
436450.,-0.3564958572,436450.,31.3701553345,436450.,2.4279439449
436470.,-0.9082080126,436470.,33.7139396667,436470.,2.4043295383
436490.,-1.3594653606,436490.,36.0814399719,436490.,2.5157873631
436510.,-1.5745311975,436510.,38.1010932922,436510.,2.7538073063
436530.,-1.5520881414,436530.,39.9675064087,436530.,2.7976770401
436550.,-1.5716720819,436550.,41.4487037659,436550.,2.8964326382
436570.,-0.9619333148,436570.,42.511341095,436570.,3.0922336578
436590.,-0.8802676201,436590.,43.4820365906,436590.,3.3726756573
436610.,-0.4528687596,436610.,44.3893432617,436610.,3.6169111729
436630.,0.0709375739,436630.,44.5060386658,436630.,3.3393933773
436650.,0.610409081,436650.,44.5650482178,436650.,3.3883006573
436670.,0.8100172281,436670.,44.5139312744,436670.,3.1164443493
436690.,1.3111227751,436690.,44.0871200562,436690.,2.7891719341
436710.,1.3286844492,436710.,42.7409706116,436710.,3.1361758709
436730.,1.3000258207,436730.,41.46824646,436730.,3.0600306988
436750.,1.0494208336,436750.,40.2630310059,436750.,2.9835934639
436770.,0.7495408654,436770.,38.14245224,436770.,2.7748413086
436790.,0.2299439907,436790.,36.3189201355,436790.,2.6176297665
436810.,-0.1413462758,436810.,34.3888435364,436810.,2.1537487507
436830.,-0.6860890388,436830.,31.5947284698,436830.,2.2091741562
436850.,-1.2172716856,436850.,28.7963352203,436850.,2.2669196129
436870.,-1.4467263222,436870.,26.0958271027,436870.,2.0609080791
436890.,-1.5204124451,436890.,23.0936317444,436890.,1.8799542189
436910.,-1.8978139162,436910.,20.0810947418,436910.,1.5517911911
436930.,-1.4719810486,436930.,16.2071666718,436930.,1.0890679359
436950.,-1.1469044685,436950.,12.8295764923,436950.,0.9517194033
436970.,-0.9400622249,436970.,9.3391904831,436970.,0.9409844279
436990.,-0.3036735058,436990.,5.7364087105,436990.,0.4048002362
437010.,-0.0151765952,437010.,2.225127697,437010.,0.3927550018
437030.,0.3833544850,437030.,-1.5865304470,437030.,-0.0728983581
437050.,0.7694295049,437050.,-5.3925018311,437050.,-0.3405224085
437070.,1.1103338003,437070.,-8.7631502151,437070.,-0.5501357317
437090.,0.8334996700,437090.,-12.5805702209,437090.,-0.4490817785
437110.,0.6875594854,437110.,-16.0074386597,437110.,-0.9081886411
437130.,0.3501898050,437130.,-19.2533683777,437130.,-1.5109317303
437150.,-0.1624043584,437150.,-22.6419429779,437150.,-1.4351041317
437170.,-0.3109712303,437170.,-25.4493865967,437170.,-1.3327512741
437190.,-0.7246128321,437190.,-28.1872539520,437190.,-1.6105767488
437210.,-1.3815432787,437210.,-30.8935279846,437210.,-1.8537752628
437230.,-1.4595504999,437230.,-33.5083274841,437230.,-1.7891118526
437250.,-1.4510761499,437250.,-35.6851501465,437250.,-2.1007683277
437270.,-1.609041214,437270.,-37.7806053162,437270.,-2.3287422657
437290.,-1.2611287832,437290.,-39.2774658203,437290.,-2.517493248
437310.,-1.0261471272,437310.,-41.4083976746,437310.,-2.2758898735
437330.,-0.3781352639,437330.,-42.2557258606,437330.,-2.8196778297
437350.,-0.0145413904,437350.,-43.4248657227,437350.,-2.5415480137
437370.,0.5685359836,437370.,-43.9053344727,437370.,-2.91381073
437390.,1.1061788797,437390.,-44.2090873718,437390.,-2.998711586
437410.,1.6243355274,437410.,-44.0015678406,437410.,-2.7778608799
437430.,2.0899884701,437430.,-43.8822746277,437430.,-2.7580261230
437450.,2.1127824783,437450.,-43.1905632019,437450.,-2.6321773529
437470.,2.2760615349,437470.,-42.3199195862,437470.,-2.6856133938
437490.,2.1137108803,437490.,-41.1893844604,437490.,-2.6398813725
437510.,1.7864421606,437510.,-39.7055969238,437510.,-2.3733975887
437530.,1.4873825312,437530.,-38.1375427246,437530.,-2.24985075
437550.,1.0766628981,437550.,-36.0271873474,437550.,-2.0537390709
437570.,0.934663415,437570.,-33.7494468689,437570.,-2.1300301552
437590.,0.350132376,437590.,-31.1640701294,437590.,-1.9387531281
437610.,0.1921799034,437610.,-28.5922775269,437610.,-1.8816839457
437630.,0.207251817,437630.,-25.7345733643,437630.,-1.5414073467
437650.,0.2261924595,437650.,-22.6319637299,437650.,-1.6190605164
437670.,0.5944173932,437670.,-19.3323097229,437670.,-1.1590118408
437690.,0.5847132802,437690.,-16.3082580566,437690.,-0.9405035973
437710.,1.1652563810,437710.,-12.7254076004,437710.,-0.6058819890
437730.,1.51658988,437730.,-9.3131065369,437730.,-0.5073921680
437750.,1.8150229454,437750.,-5.6813912392,437750.,-0.3859271109
437770.,2.0490424633,437770.,-2.0849204063,437770.,-0.1976103783
437790.,2.260843277,437790.,1.5889790058,437790.,0.2972049415
437810.,2.3000030518,437810.,5.1384706497,437810.,0.4143364727
437830.,2.1312334538,437830.,8.7812242508,437830.,0.6958199739
437850.,1.8946187496,437850.,12.2062530518,437850.,0.7393039465
437870.,1.5602964163,437870.,15.7334508896,437870.,1.2143824100
437890.,1.1638423204,437890.,19.3885383606,437890.,1.4270467758
437910.,0.6410927176,437910.,22.1334056854,437910.,1.3876625299
437930.,0.0013763915,437930.,25.2856674194,437930.,1.8898775578
437950.,-0.5327798128,437950.,28.0965404510,437950.,2.0835502148
437970.,-0.8562225699,437970.,30.9919185638,437970.,2.3400790691
437990.,-1.1321004629,437990.,33.2933273315,437990.,2.3514118195
438010.,-1.0652996302,438010.,35.7807960510,438010.,2.6040525436
438030.,-0.8553040624,438030.,37.3392868042,438030.,2.4876964092
438050.,-0.6777549386,438050.,39.1917190552,438050.,2.8216004372
438070.,-0.5909930468,438070.,40.7693328857,438070.,3.0668592453
438090.,-0.0027526768,438090.,41.9418678284,438090.,3.2549078465
438110.,0.4520843923,438110.,43.1567420959,438110.,3.0280277729
438130.,0.8646682501,438130.,43.5462875366,438130.,3.1936144829
438150.,1.2593481541,438150.,43.6050453186,438150.,3.1974000931
438170.,1.3284671307,438170.,43.7830162048,438170.,3.2434508801
438190.,1.493011117,438190.,43.3487434387,438190.,3.2411510944
438210.,1.3594565392,438210.,42.8836250305,438210.,3.0394380093
438230.,1.1553567648,438230.,41.9004898071,438230.,3.0019729137
438250.,0.8608278632,438250.,41.1335487366,438250.,2.7028813362
438270.,0.3422111571,438270.,39.4221267700,438270.,2.9621942043
438290.,0.0889832824,438290.,37.7524909973,438290.,2.7583856583
438310.,-0.3850819170,438310.,35.6914558411,438310.,2.466388464
438330.,-0.8235296607,438330.,33.3610000610,438330.,2.3523385525
438350.,-1.1585527658,438350.,31.3192272186,438350.,2.4389250278
438370.,-1.1916811466,438370.,28.3853912354,438370.,2.0061280727
438390.,-1.1889902353,438390.,25.2960739136,438390.,2.0419893265
438410.,-1.1338686943,438410.,22.3059577942,438410.,1.782158494
438430.,-0.923414886,438430.,19.3572902679,438430.,1.6442210674
438450.,-0.3256812394,438450.,15.9597873688,438450.,1.3213295937
438470.,0.2081913799,438470.,12.4158935547,438470.,0.9059454799
438490.,0.3724263012,438490.,9.1499605179,438490.,0.6437631845
438510.,0.4488578439,438510.,5.5089178085,438510.,0.48677665
438530.,0.748675108,438530.,1.9110969305,438530.,0.1235324293
438550.,0.9987438321,438550.,-1.7552731037,438550.,-0.3442157209
438570.,0.7798713446,438570.,-5.4078402519,438570.,-0.1657623053
438590.,0.6182414293,438590.,-8.6908264160,438590.,-0.5489804149
438610.,0.1773545742,438610.,-12.5402269363,438610.,-0.6790232062
438630.,-0.2148137093,438630.,-15.9254293442,438630.,-1.0427277088
438650.,-0.516058445,438650.,-18.7782306671,438650.,-1.0324794054
438670.,-1.019879818,438670.,-22.2669315338,438670.,-1.0961244106
438690.,-1.3996711969,438690.,-24.9498901367,438690.,-1.2886637449
438710.,-1.6437191963,438710.,-27.835144043,438710.,-1.6149984598
438730.,-1.8821294308,438730.,-30.7916316986,438730.,-1.4595720768
438750.,-1.6243695021,438750.,-32.8638153076,438750.,-1.9225760698
438770.,-1.4801198244,438770.,-35.1667022705,438770.,-2.1356956959
438790.,-1.2658604383,438790.,-37.2453384399,438790.,-2.3371438980
438810.,-0.8062943220,438810.,-38.770690918,438810.,-2.5778479576
438830.,-0.3147961497,438830.,-40.3780822754,438830.,-2.7682890892
438850.,0.1422383934,438850.,-41.6278724670,438850.,-2.686678648
438870.,0.6721881628,438870.,-42.6892433167,438870.,-2.5614504814
438890.,1.0340996981,438890.,-42.9818763733,438890.,-2.6974716187
438910.,1.4563530684,438910.,-43.5051765442,438910.,-2.6912403107
438930.,1.2965089083,438930.,-43.3276290894,438930.,-2.9705553055
438950.,1.5294409990,438950.,-43.1054801941,438950.,-2.9075613022
438970.,1.2817331553,438970.,-42.3495292664,438970.,-2.806863308
438990.,1.1537714005,438990.,-41.4731407166,438990.,-2.7868435383
439010.,0.7415769696,439010.,-40.3800735474,439010.,-2.2784781456
439030.,0.6700323224,439030.,-38.9543685913,439030.,-2.0757057667
439050.,0.259385407,439050.,-37.2919006348,439050.,-2.2107551098
439070.,0.1089072675,439070.,-34.9333610535,439070.,-2.1615653038
439090.,-0.1098504663,439090.,-32.9548377991,439090.,-2.1376092434
439110.,-0.0635726079,439110.,-30.6739673615,439110.,-1.7306326628
439130.,0.0882299393,439130.,-28.0019207001,439130.,-1.3202102184
439150.,0.5393790007,439150.,-25.0596752167,439150.,-1.5480706692
439170.,0.5381655693,439170.,-22.0581798553,439170.,-1.2202841043
439190.,1.1629624367,439190.,-19.103302002,439190.,-1.2517414093
439210.,1.5094429255,439210.,-15.9451160431,439210.,-0.8245730400
439230.,1.7501492500,439230.,-12.5174951553,439230.,-1.0961190462
439250.,2.2342765331,439250.,-8.8531703949,439250.,-0.4024687409
439270.,2.0314669609,439270.,-5.3076028824,439270.,-0.4080727100
439290.,2.1855394840,439290.,-1.9075781107,439290.,0.1722212285
439310.,1.8366737366,439310.,1.8778661489,439310.,0.2848225236
439330.,1.6405528784,439330.,5.2538671494,439330.,0.5402408838
439350.,1.5184057951,439350.,8.8759222031,439350.,0.72888726
439370.,0.9574919939,439370.,12.0763273239,439370.,0.9262899756
439390.,0.458026439,439390.,15.8007564545,439390.,1.1043590307
439410.,0.2801518738,439410.,18.8602714539,439410.,1.3910286427
439430.,-0.3788388073,439430.,22.0328159332,439430.,1.6083755493
439450.,-0.6840496659,439450.,24.8521041870,439450.,1.7538713217
439470.,-0.7851762176,439470.,27.9071235657,439470.,2.0139353275
439490.,-1.0658006668,439490.,30.6457386017,439490.,1.9979552031
439510.,-0.6645382047,439510.,32.8132629395,439510.,2.5385251045
439530.,-0.6343649626,439530.,34.9182815552,439530.,2.8566961288
439550.,0.0767729133,439550.,36.9092979431,439550.,2.7365360260
439570.,0.4613243341,439570.,38.5164184570,439570.,2.890001297
439590.,0.9459015131,439590.,40.0268936157,439590.,2.9761898518
439610.,1.1582173109,439610.,41.6586265564,439610.,3.2143254280
439630.,1.2497979403,439630.,42.4022636414,439630.,3.2757301331
439650.,1.3736056089,439650.,42.8037605286,439650.,2.9208178520
439670.,1.4097629786,439670.,43.1137962341,439670.,3.1920230389
439690.,1.3489983082,439690.,43.2052459717,439690.,2.9034061432
439710.,1.1926511526,439710.,42.5035095215,439710.,2.9250688553
439730.,0.7876052856,439730.,42.1193656921,439730.,3.0894925594
439750.,0.4978448153,439750.,41.4105072021,439750.,2.8383610249
439770.,0.0231432505,439770.,40.1214942932,439770.,2.9662630558
439790.,-0.1599326432,439790.,38.5926208496,439790.,2.8247978687
439810.,-0.4166186154,439810.,36.6060829163,439810.,2.9660480022
439830.,-0.3159376085,439830.,34.8931045532,439830.,2.6645967960
439850.,-0.6207404733,439850.,32.8374481201,439850.,2.5790657997
439870.,-0.5191260576,439870.,30.1334800720,439870.,2.4988591671
439890.,-0.4562564194,439890.,27.6110744476,439890.,2.2929253578
439910.,0.093830511,439910.,24.7976932526,439910.,1.8038078547
439930.,0.1982479393,439930.,21.9518203735,439930.,1.8459421396
439950.,0.2997475564,439950.,18.9983043671,439950.,1.4401763678
439970.,0.6815614104,439970.,15.6017045975,439970.,1.4787306786
439990.,1.0654448271,439990.,12.4305686951,439990.,1.0764712095
440010.,1.2613412142,440010.,8.7390708923,440010.,0.9677124023
440030.,1.2753623724,440030.,5.4460940361,440030.,0.5659715533
440050.,1.1505144835,440050.,1.7780308723,440050.,0.2294980139
440070.,0.5440812111,440070.,-1.6781451702,440070.,0.1324175745
440090.,0.1671286672,440090.,-5.2555370331,440090.,-0.1438963860
440110.,-0.0630815849,440110.,-8.4575643539,440110.,-0.4412498772
440130.,-0.6338858604,440130.,-12.0700759888,440130.,-0.652053237
440150.,-1.0471768379,440150.,-15.3418731689,440150.,-0.8292210698
440170.,-1.1702542305,440170.,-18.4928321838,440170.,-0.9402833581
440190.,-1.5830441713,440190.,-21.7260608673,440190.,-1.5075911283
440210.,-1.5786676407,440210.,-24.5947132111,440210.,-1.5503847599
440230.,-1.4438385963,440230.,-27.5747909546,440230.,-1.6350846291
440250.,-1.4088634253,440250.,-30.2650375366,440250.,-1.5351860523
440270.,-1.0720717907,440270.,-32.7190666199,440270.,-1.8181370497
440290.,-0.7103962898,440290.,-34.5815200806,440290.,-2.2587077618
440310.,-0.3154866099,440310.,-36.5347328186,440310.,-2.0178308487
440330.,0.0008993407,440330.,-38.2570838928,440330.,-2.7168869972
440350.,0.4388365149,440350.,-39.3716583252,440350.,-2.6764039993
440370.,0.3756413758,440370.,-40.7657051086,440370.,-2.7066786289
440390.,0.9447256923,440390.,-41.5497360229,440390.,-2.5683510303
440410.,0.7180044651,440410.,-42.2122383118,440410.,-2.6937572956
440430.,0.7741259336,440430.,-42.5976257324,440430.,-2.8351600170
440450.,0.7082265615,440450.,-42.4388618469,440450.,-2.6149003506
440470.,0.4255134463,440470.,-42.4479408264,440470.,-2.3601155281
440490.,0.3359339237,440490.,-41.6048736572,440490.,-2.4024238586
440510.,-0.1358876675,440510.,-40.6497802734,440510.,-2.3259677887
440530.,-0.3502026200,440530.,-39.5913696289,440530.,-2.3617453575
440550.,-0.5292611122,440550.,-38.0756607056,440550.,-2.5914621353
440570.,-0.5127455592,440570.,-36.5592689514,440570.,-2.0501456261
440590.,-0.4699189663,440590.,-34.3336181641,440590.,-2.0266640186
440610.,-0.313469708,440610.,-32.1610412598,440610.,-2.0466256142
440630.,0.0088268425,440630.,-29.9328536987,440630.,-1.7338995934
440650.,0.2876208425,440650.,-27.3738708496,440650.,-1.6108853817
440670.,0.8433980346,440670.,-24.6883773804,440670.,-1.5172368288
440690.,1.1491715908,440690.,-21.7266101837,440690.,-1.2470541000
440710.,1.3819918633,440710.,-18.7874164581,440710.,-1.0872825384
440730.,1.3903738260,440730.,-15.1037492752,440730.,-0.8350067139
440750.,1.7918845415,440750.,-12.1343107224,440750.,-0.8064931035
440770.,1.7468967438,440770.,-8.714963913,440770.,-0.4403809607
440790.,1.582952261,440790.,-5.4230318069,440790.,-0.2624052763
440810.,1.4251084328,440810.,-1.571038723,440810.,0.0452114083
440830.,1.0696791410,440830.,1.7967680693,440830.,0.5225127339
440850.,0.7638816833,440850.,5.1848688126,440850.,0.6010958552
440870.,0.4658146799,440870.,8.6134157181,440870.,0.6550733447
440890.,0.0074452888,440890.,12.2682981491,440890.,1.196038723
440910.,-0.2495906204,440910.,15.6112680435,440910.,1.1681597233
440930.,-0.5000834465,440930.,18.5869178772,440930.,1.5850460529
440950.,-0.4954231977,440950.,21.7014541626,440950.,1.6204959154
440970.,-0.708478272,440970.,24.6921749115,440970.,1.8064776659
440990.,-0.4046936035,440990.,27.5264301300,440990.,1.9429973364
441010.,-0.1500018686,441010.,29.9690761566,441010.,2.1757838726
441030.,-0.0582232326,441030.,32.196762085,441030.,2.3629732132
441050.,0.5299624205,441050.,34.389705658,441050.,2.3734004498
441070.,0.8533676863,441070.,36.6886711121,441070.,2.4942252636
441090.,0.9317750335,441090.,38.1127052307,441090.,2.8688936234
441110.,1.2525664568,441110.,39.5632858276,441110.,2.7673909664
441130.,1.3350014687,441130.,40.3175468445,441130.,3.2368028164
441150.,1.2203705311,441150.,41.4982376099,441150.,2.8338210583
441170.,1.1701374054,441170.,41.9641075134,441170.,2.9317481518
441190.,0.991291225,441190.,42.1114044189,441190.,3.0064218044
441210.,1.0450322628,441210.,42.1068954468,441210.,3.1608572006
441230.,0.3631929755,441230.,42.0775680542,441230.,3.1000576019
441250.,0.3482930362,441250.,40.8938674927,441250.,3.1875674725
441270.,-0.3186038136,441270.,40.1223106384,441270.,2.9464054108
441290.,-0.4800266325,441290.,39.2525177002,441290.,2.8251280785
441310.,-0.3636700511,441310.,37.6975326538,441310.,2.8839249611
441330.,0.0351823792,441330.,35.9058837891,441330.,2.5239298344
441350.,-0.1810267866,441350.,34.1954650879,441350.,2.9403634071
441370.,0.0719605908,441370.,31.7790737152,441370.,2.389538765
441390.,0.7963887453,441390.,29.3512306213,441390.,2.2798423767
441410.,0.5171999931,441410.,26.9832534790,441410.,1.9647095203
441430.,0.9105907083,441430.,24.097612381,441430.,1.7967938185
441450.,1.3999494314,441450.,21.4106464386,441450.,1.3750606775
441470.,1.5886832476,441470.,18.1900119781,441470.,1.2800765038
441490.,1.4203002453,441490.,14.7803382874,441490.,1.2583658695
441510.,1.2754176855,441510.,11.9762449265,441510.,1.049541235
441530.,1.3641904593,441530.,8.3381223679,441530.,0.5296036601
441550.,1.1302129030,441550.,5.1484928131,441550.,0.3937847912
441570.,0.7981456518,441570.,1.5293252468,441570.,0.294819206
441590.,0.1258701533,441590.,-1.8546106815,441590.,0.0920895487
441610.,-0.06655287,441610.,-5.3778934479,441610.,-0.2728088796
441630.,-0.5390973687,441630.,-8.8435850143,441630.,-0.2658471465
441650.,-0.7625914216,441650.,-12.1170845032,441650.,-0.4415722489
441670.,-0.87668854,441670.,-15.239397049,441670.,-0.7627457380
441690.,-1.1133344173,441690.,-18.4706020355,441690.,-1.0449570417
441710.,-1.0254664421,441710.,-21.5363769531,441710.,-1.2017199993
441730.,-1.045072794,441730.,-24.3343524933,441730.,-1.5424450636
441750.,-1.0739855766,441750.,-27.0705547333,441750.,-1.7499166727
441770.,-0.3705272377,441770.,-29.7249851227,441770.,-1.8815977573
441790.,-0.1191858426,441790.,-31.7954788208,441790.,-2.0407748222
441810.,0.0896287113,441810.,-34.1203804016,441810.,-2.0366787910
441830.,0.3673696816,441830.,-35.9921836853,441830.,-2.3320379257
441850.,0.4348635674,441850.,-37.7891998291,441850.,-2.1742832661
441870.,0.577737391,441870.,-39.0366401672,441870.,-2.6083579063
441890.,0.5514169335,441890.,-40.2677307129,441890.,-2.5026943684
441910.,0.3148032129,441910.,-40.9167060852,441910.,-2.5437562466
441930.,0.3533100486,441930.,-41.4498519897,441930.,-2.6133625507
441950.,-0.0603129603,441950.,-41.9226722717,441950.,-2.8345253468
441970.,-0.3392928839,441970.,-41.4773674011,441970.,-2.4322190285
441990.,-0.5927232504,441990.,-41.4721870422,441990.,-2.4896757603
442010.,-0.7823527455,442010.,-40.5875625610,442010.,-2.4451835155
442030.,-0.6025021672,442030.,-39.8984603882,442030.,-2.2503521442
442050.,-0.9993417859,442050.,-39.0127906799,442050.,-2.2923233509
442070.,-0.7049462199,442070.,-37.5479698181,442070.,-2.6275439262
442090.,-0.0794077590,442090.,-35.5968666077,442090.,-2.0376048088
442110.,-0.0505509749,442110.,-33.8288078308,442110.,-1.9292945862
442130.,0.3346271813,442130.,-31.8852767944,442130.,-1.7875826359
442150.,0.7729439735,442150.,-29.3418960571,442150.,-1.7687523365
442170.,1.1981642246,442170.,-27.2524719238,442170.,-1.4133851528
442190.,1.2465555668,442190.,-24.0169487,442190.,-1.2293664217
442210.,1.5100110769,442210.,-21.2371139526,442210.,-1.3602621555
442230.,1.5001934767,442230.,-17.8359966278,442230.,-0.8834164143
442250.,1.6429777145,442250.,-14.7279062271,442250.,-1.1560950279
442270.,1.1511157751,442270.,-11.6070318222,442270.,-0.3617613614
442290.,1.1212064028,442290.,-8.3241424561,442290.,-0.3262638748
442310.,0.6783583164,442310.,-5.1651744843,442310.,0.0158104282
442330.,0.3884620070,442330.,-1.369222641,442330.,0.032054361
442350.,-0.0259268135,442350.,1.8653503656,442350.,0.3860619068
442370.,-0.3130102754,442370.,5.4446597099,442370.,0.5718237758
442390.,-0.5165600777,442390.,8.7953691483,442390.,0.8032007217
442410.,-0.5771209002,442410.,12.4464035034,442410.,1.1649125814
442430.,-0.9098216295,442430.,15.1872978210,442430.,1.384572506
442450.,-0.6240350604,442450.,18.6605014801,442450.,1.3101509809
442470.,-0.2912835479,442470.,21.3279876709,442470.,1.7139673233
442490.,-0.1362085491,442490.,24.2722892761,442490.,1.7724772692
442510.,0.07980261,442510.,26.9114093781,442510.,2.0295760632
442530.,0.3337304294,442530.,29.6686992645,442530.,2.3683142662
442550.,0.8667868972,442550.,31.8412132263,442550.,2.2776942253
442570.,0.8350849152,442570.,33.7512512207,442570.,2.3880193233
442590.,1.3301355839,442590.,35.7225570679,442590.,2.5124659538
442610.,1.1641457081,442610.,37.5403747559,442610.,2.6976819038
442630.,1.4498748779,442630.,38.6145591736,442630.,2.6497662067
442650.,0.8857022524,442650.,39.6261177063,442650.,2.9338145256
442670.,0.8142132759,442670.,40.4016838074,442670.,2.8567268848
442690.,0.4569696486,442690.,41.5291442871,442690.,2.8695106506
442710.,0.4064479470,442710.,41.2091331482,442710.,3.0071103573
442730.,0.1346911639,442730.,41.298740387,442730.,2.9799413681
442750.,0.1695717722,442750.,41.1507987976,442750.,2.890062809
442770.,-0.1652763039,442770.,40.3017730713,442770.,2.9575855732
442790.,-0.2479720563,442790.,39.5214538574,442790.,2.9520363808
442810.,-0.3307811618,442810.,38.5203742981,442810.,2.91411376
442830.,0.1811113954,442830.,36.8551673889,442830.,2.7784886360
442850.,0.6396213174,442850.,35.1597824097,442850.,2.7513365746
442870.,0.7333988547,442870.,33.3821640015,442870.,2.5245699883
442890.,1.2976825237,442890.,31.4171085358,442890.,2.3741614819
442910.,1.3272783756,442910.,28.9773349762,442910.,1.9613368511
442930.,1.6241294146,442930.,26.3266220093,442930.,2.0388479233
442950.,1.7991232872,442950.,23.6470699310,442950.,2.0691239834
442970.,1.6335806847,442970.,21.1203517914,442970.,1.5767490864
442990.,1.7827930450,442990.,17.6730899811,442990.,1.6038677692
443010.,1.6719805002,443010.,14.6743249893,443010.,0.9976682067
443030.,1.3175196648,443030.,11.4766950607,443030.,0.9805508256
443050.,1.0367645025,443050.,7.9431180954,443050.,0.8966878653
443070.,0.7630594969,443070.,4.6594743729,443070.,0.5397353768
443090.,0.4620520175,443090.,1.3191944361,443090.,0.3299078047
443110.,0.1004970223,443110.,-1.8963266611,443110.,0.0063873152
443130.,-0.2057765722,443130.,-5.4284257889,443130.,-0.0515868105
443150.,-0.4252402782,443150.,-8.4305610657,443150.,-0.4832000434
443170.,-0.4961425960,443170.,-12.1175746918,443170.,-0.2737143338
443190.,-0.3590260148,443190.,-15.3979110718,443190.,-0.8844246864
443210.,-0.3586485982,443210.,-18.3240966797,443210.,-1.1116799116
443230.,-0.1121925563,443230.,-21.0792179108,443230.,-1.2132732868
443250.,-0.2063090801,443250.,-24.0387878418,443250.,-1.3470183611
443270.,0.0410913453,443270.,-26.7147235870,443270.,-1.4404543638
443290.,0.420003891,443290.,-29.1977767944,443290.,-1.7647938728
443310.,0.4810406566,443310.,-31.5085353851,443310.,-2.0193884373
443330.,0.4911822677,443330.,-33.5823860168,443330.,-2.0262537003
443350.,0.5216216445,443350.,-35.3142089844,443350.,-2.1720023155
443370.,0.5187632442,443370.,-37.0361289978,443370.,-2.0275697708
443390.,0.2212730646,443390.,-38.4283447266,443390.,-2.4313631058
443410.,-0.0032290937,443410.,-39.3522872925,443410.,-2.3181645870
443430.,-0.0571824685,443430.,-40.0885581970,443430.,-2.3050401211
443450.,-0.6242732406,443450.,-40.6038017273,443450.,-2.4349339008
443470.,-0.6758253574,443470.,-41.0244789124,443470.,-2.6451499462
443490.,-0.8330656886,443490.,-41.0234069824,443490.,-2.5027134418
443510.,-0.9678704739,443510.,-40.5969161987,443510.,-2.3337490559
443530.,-1.1094504595,443530.,-40.0528526306,443530.,-2.6337571144
443550.,-0.6599871516,443550.,-39.2314796448,443550.,-2.3969833851
443570.,-0.3795430958,443570.,-37.9158248901,443570.,-2.6560947895
443590.,-0.2687149346,443590.,-36.8148269653,443590.,-2.3762586117
443610.,-0.1610273421,443610.,-35.1109695435,443610.,-2.0952095985
443630.,0.3642031252,443630.,-32.994884491,443630.,-2.1078631878
443650.,0.6334303021,443650.,-30.9076728821,443650.,-1.4302612543
443670.,1.0582762957,443670.,-28.5109024048,443670.,-1.5470350981
443690.,0.9982228875,443690.,-26.1129302979,443690.,-1.2346925735
443710.,1.0449252129,443710.,-23.311126709,443710.,-1.1189098358
443730.,1.0350219011,443730.,-20.5402050018,443730.,-1.3514249325
443750.,1.1598715782,443750.,-17.4504718781,443750.,-0.9200272560
443770.,0.7584100962,443770.,-14.4009199142,443770.,-0.5223689079
443790.,0.4090093374,443790.,-11.2302904129,443790.,-0.4909025133
443810.,0.0518572927,443810.,-7.9397182465,443810.,-0.1890108585
443830.,-0.3980015516,443830.,-4.5569133759,443830.,0.115116179
443850.,-0.3093905449,443850.,-1.2249234915,443850.,0.1225562617
443870.,-0.7437353134,443870.,2.2120490074,443870.,0.3831256926
443890.,-0.505397141,443890.,5.5175170898,443890.,0.5163758993
443910.,-0.7992907166,443910.,8.5739440918,443910.,1.0210500956
443930.,-0.6298148036,443930.,12.1574153900,443930.,0.9566537142
443950.,-0.3921650350,443950.,15.0586805344,443950.,1.2529842854
443970.,-0.1981438994,443970.,18.4449234009,443970.,1.6723684072
443990.,-0.0688050389,443990.,21.4978599548,443990.,1.629934907
444010.,0.2615291178,444010.,24.2203903198,444010.,1.8361133337
444030.,0.3568974733,444030.,26.6872310638,444030.,1.6783112288
444050.,0.5569363832,444050.,29.3080329895,444050.,2.1206431389
444070.,0.5871500373,444070.,31.3552398682,444070.,2.4908800125
444090.,0.7960984707,444090.,33.3349037170,444090.,2.4020969868
444110.,0.7614953518,444110.,35.2506828308,444110.,2.5341534615
444130.,0.6851532459,444130.,36.8629379272,444130.,2.8822226524
444150.,0.3328153193,444150.,38.1103630066,444150.,2.6038844585
444170.,0.2666461766,444170.,39.2733535767,444170.,2.9639718533
444190.,-0.0251009166,444190.,39.9619178772,444190.,3.0215404034
444210.,-0.1918268502,444210.,40.4888572693,444210.,2.6921267509
444230.,-0.2378229797,444230.,40.4916954041,444230.,2.7807013988
444250.,-0.1528841704,444250.,40.7759933472,444250.,2.8435804844
444270.,-0.1683700979,444270.,40.0966949463,444270.,2.7359132767
444290.,-0.0880880803,444290.,39.6896476746,444290.,2.9350929260
444310.,0.0921840146,444310.,38.9494895935,444310.,2.7184710503
444330.,0.6085640788,444330.,37.6905097961,444330.,2.9954667091
444350.,0.8349229097,444350.,36.3524093628,444350.,2.7395920753
444370.,1.1927125454,444370.,34.6811561584,444370.,2.5077176094
444390.,1.6089624166,444390.,32.6191062927,444390.,2.3169102669
444410.,1.924720645,444410.,30.9999198914,444410.,2.4721980095
444430.,1.8648363352,444430.,28.1428089142,444430.,2.2597503662
444450.,1.7946128845,444450.,25.7762355804,444450.,1.9081025124
444470.,1.8933819532,444470.,23.0924205780,444470.,1.6517680883
444490.,1.7801052332,444490.,20.3443069458,444490.,1.2105767727
444510.,1.4729611874,444510.,17.5768928528,444510.,1.3647216558
444530.,1.0456252098,444530.,14.3913383484,444530.,1.045750618
444550.,0.9232008457,444550.,10.9587478638,444550.,1.1872080564
444570.,0.6911605597,444570.,8.1289358139,444570.,1.0738925934
444590.,0.3048357666,444590.,4.5860261917,444590.,0.8635428548
444610.,0.0559453815,444610.,1.1782271862,444610.,0.5420925617
444630.,-0.0116825048,444630.,-2.1365962029,444630.,0.3546827734
444650.,-0.029101003,444650.,-5.3288836479,444650.,-0.0321670361
444670.,0.0913490877,444670.,-8.9151306152,444670.,-0.4781600237
444690.,0.1553675681,444690.,-11.8418102264,444690.,-0.5697435737
444710.,0.1075203419,444710.,-15.4700222015,444710.,-0.6555319428
444730.,0.6111544371,444730.,-18.1578540802,444730.,-0.9027284384
444750.,0.7207570672,444750.,-20.8698253632,444750.,-1.1303318739
444770.,0.9829003215,444770.,-23.8366088867,444770.,-1.3558725119
444790.,0.9751695991,444790.,-26.4896774292,444790.,-1.4246007204
444810.,1.0524673462,444810.,-28.911359787,444810.,-1.7982088327
444830.,0.9713069201,444830.,-30.9414825439,444830.,-2.0529499054
444850.,0.7424834371,444850.,-33.0670318604,444850.,-2.0465033054
444870.,0.4055633247,444870.,-34.7871017456,444870.,-2.4163010120
444890.,0.0118390312,444890.,-36.438369751,444890.,-2.2360570431
444910.,-0.0731885433,444910.,-37.9667282104,444910.,-2.4834232330
444930.,-0.1796484441,444930.,-38.7906227112,444930.,-2.3232858181
444950.,-0.4622105658,444950.,-39.8789482117,444950.,-2.3791947365
444970.,-0.7938038707,444970.,-40.1788520813,444970.,-2.5104749203
444990.,-0.7833240628,444990.,-39.9488449097,444990.,-2.3133182526
445010.,-0.9639362097,445010.,-40.1245765686,445010.,-2.5064702034
445030.,-0.7785146236,445030.,-39.715877533,445030.,-2.4179782867
445050.,-0.3828174472,445050.,-39.4495048523,445050.,-2.4450147152
445070.,-0.3889133632,445070.,-38.4102172852,445070.,-2.6435804367
445090.,0.1840085089,445090.,-37.3827476501,445090.,-2.0317158699
445110.,0.414249301,445110.,-36.0609283447,445110.,-2.1308820248
445130.,0.6252489686,445130.,-34.3588218689,445130.,-1.9854745865
445150.,0.8734003305,445150.,-32.2012634277,445150.,-1.9937231541
445170.,0.7478117347,445170.,-30.4896278381,445170.,-1.7810401917
445190.,0.8661953211,445190.,-27.9838447571,445190.,-1.6042926311
445210.,0.9159726501,445210.,-25.5338668823,445210.,-1.4515626431
445230.,0.8083685040,445230.,-23.1330776215,445230.,-1.2757115364
445250.,0.3870801628,445250.,-20.0513591766,445250.,-0.7765054107
445270.,0.3659317493,445270.,-17.177646637,445270.,-0.8808598518
445290.,0.1085303649,445290.,-14.0732374191,445290.,-0.732973516
445310.,-0.2901674509,445310.,-10.6150398254,445310.,-0.4831066728
445330.,-0.3616091609,445330.,-7.6839532852,445330.,-0.0396035351
445350.,-1.0061234236,445350.,-3.9495155811,445350.,-0.1974557787
445370.,-1.0019024611,445370.,-1.0681599379,445370.,0.1885716170
445390.,-0.7513808012,445390.,2.3814783096,445390.,0.5879293680
445410.,-0.8193326592,445410.,5.3314332962,445410.,0.6383781433
445430.,-0.6203584075,445430.,9.0316925049,445430.,1.0802959204
445450.,-0.4358658791,445450.,12.1129283905,445450.,1.1044367552
445470.,-0.2361256927,445470.,15.3008470535,445470.,1.3468865156
445490.,0.0396540686,445490.,18.4000282288,445490.,1.6176304817
445510.,0.2308046222,445510.,21.0589485168,445510.,1.5822908878
445530.,0.1616533101,445530.,23.7506446838,445530.,2.0256419182
445550.,0.3239205182,445550.,26.0232067108,445550.,2.08725667
445570.,0.5486536026,445570.,28.6349563599,445570.,2.1886646748
445590.,0.2691088617,445590.,31.0661792755,445590.,2.3007931709
445610.,0.0912937894,445610.,32.9259872437,445610.,2.5411858559
445630.,-0.0059743631,445630.,34.5832557678,445630.,2.5765514374
445650.,-0.1659810841,445650.,36.1555099487,445650.,2.5934052467
445670.,-0.6886565685,445670.,37.7343597412,445670.,2.6899485588
445690.,-0.5919466615,445690.,38.4666442871,445690.,3.0334849358
445710.,-0.7188442945,445710.,39.2697830200,445710.,2.9992673397
445730.,-0.4826716483,445730.,39.8978385925,445730.,2.7269783020
445750.,-0.5873543620,445750.,39.9449501038,445750.,2.9873094559
445770.,-0.4028552771,445770.,40.0764007568,445770.,2.7671511173
445790.,-0.0589276962,445790.,39.4281578064,445790.,3.1175529957
445810.,0.4197576642,445810.,38.8300514221,445810.,2.8698022366
445830.,0.6762163639,445830.,38.4141502380,445830.,2.7265422344
445850.,0.8939598203,445850.,36.9718666077,445850.,2.9621558189
445870.,1.1241041422,445870.,35.7178878784,445870.,2.4620876312
445890.,1.5340034962,445890.,33.8463401794,445890.,2.5168173313
445910.,1.4882833958,445910.,32.1490402222,445910.,2.1861371994
445930.,1.9150564671,445930.,29.8621292114,445930.,2.2069828510
445950.,1.6036090851,445950.,27.8232631683,445950.,2.1045198441
445970.,1.5729314089,445970.,25.3258800507,445970.,1.7006086111
445990.,1.4103696346,445990.,22.5131740570,445990.,1.5661193132
446010.,1.1478593349,446010.,19.8744354248,446010.,1.4733605385
446030.,1.1717550755,446030.,16.9008216858,446030.,1.4755091667
446050.,0.8461689949,446050.,13.7377109528,446050.,1.2564412355
446070.,0.6655942798,446070.,10.8644971848,446070.,0.9740000963
446090.,0.4760175645,446090.,7.6362233162,446090.,0.6339245439
446110.,0.3317466378,446110.,4.0677595139,446110.,0.7971579432
446130.,0.5467268825,446130.,0.8424650431,446130.,0.5970985889
446150.,0.5306844115,446150.,-2.3002095222,446150.,0.1264553219
446170.,0.8264095783,446170.,-5.6907773018,446170.,-0.354408741
446190.,0.8395655155,446190.,-8.7789993286,446190.,-0.4067937732
446210.,1.1338710785,446210.,-12.1522607803,446210.,-0.5848906636
446230.,1.2159206867,446230.,-15.0801887512,446230.,-0.6361166239
446250.,1.2033199072,446250.,-18.0634212494,446250.,-0.8510151505
446270.,1.3011314869,446270.,-20.7495918274,446270.,-1.0759905577
446290.,1.0473823547,446290.,-23.953994751,446290.,-1.3341269493
446310.,1.2980524302,446310.,-26.3834457397,446310.,-1.5185099840
446330.,1.2541562319,446330.,-28.5801448822,446330.,-1.6958099604
446350.,0.6450728774,446350.,-30.9254131317,446350.,-1.9415017366
446370.,0.5133943558,446370.,-32.7444801331,446370.,-1.8516837358
446390.,0.4200123847,446390.,-34.4090270996,446390.,-1.8651380539
446410.,-0.0993752405,446410.,-36.2112579346,446410.,-2.0007474422
446430.,-0.243900314,446430.,-37.2615509033,446430.,-2.1678309441
446450.,-0.3718187511,446450.,-38.2252120972,446450.,-2.1437542439
446470.,-0.4452234805,446470.,-39.1288452148,446470.,-2.3365080357
446490.,-0.2799855173,446490.,-39.4618034363,446490.,-2.562415123
446510.,-0.2674998939,446510.,-39.5527801514,446510.,-2.3331696987
446530.,-0.1708706915,446530.,-39.4670410156,446530.,-2.2900891304
446550.,0.2513682544,446550.,-39.2585639954,446550.,-2.3169834614
446570.,0.2561326325,446570.,-38.4635429382,446570.,-2.1067929268
446590.,0.5273526907,446590.,-37.7982063293,446590.,-2.1182260513
446610.,0.7661273479,446610.,-36.4481620789,446610.,-2.2008523941
446630.,1.0171043873,446630.,-35.0978469849,446630.,-2.1742823124
446650.,0.9229019284,446650.,-33.3608169556,446650.,-1.9744020700
446670.,0.9900491238,446670.,-31.5154685974,446670.,-2.1679830551
446690.,1.0501943827,446690.,-29.6302757263,446690.,-1.85219872
446710.,0.6598552465,446710.,-26.9822235107,446710.,-1.3660941124
446730.,0.4617621303,446730.,-24.7963371277,446730.,-1.2677958012
446750.,0.3309047818,446750.,-22.2877349854,446750.,-0.9876003265
446770.,-0.1668177992,446770.,-19.3751564026,446770.,-0.8982872963
446790.,-0.1277597249,446790.,-16.5315933228,446790.,-0.7516030669
446810.,-0.5174067020,446810.,-13.6188964844,446810.,-0.4603421688
446830.,-0.6090537906,446830.,-10.2494707108,446830.,-0.1602194309
446850.,-0.5893142819,446850.,-7.0219931602,446850.,-0.3491179943
446870.,-0.8694654107,446870.,-3.9867472649,446870.,0.2612297535
446890.,-0.5545324683,446890.,-0.7982462645,446890.,0.4207731485
446910.,-0.5720518231,446910.,2.4765548706,446910.,0.6383208632
446930.,-0.5639411807,446930.,5.9391932487,446930.,0.7457022071
446950.,-0.5119825602,446950.,9.1528902054,446950.,1.0477511883
446970.,-0.1031215563,446970.,11.9305505753,446970.,1.1315627098
446990.,0.0887161121,446990.,15.1564159393,446990.,1.5484852791
447010.,-0.0183421783,447010.,17.9322414398,447010.,1.5436594486
447030.,-0.0509148203,447030.,20.7513313293,447030.,2.0151665211
447050.,0.0307070091,447050.,23.3298015594,447050.,1.8023785353
447070.,-0.3318288624,447070.,25.9522533417,447070.,2.1083507538
447090.,-0.367418021,447090.,28.5126190186,447090.,2.2809238434
447110.,-0.7611524463,447110.,30.4887599945,447110.,2.2742476463
447130.,-0.7938921452,447130.,32.6335525513,447130.,2.4441950321
447150.,-0.7348088026,447150.,34.3211555481,447150.,2.5764787197
447170.,-0.9712172747,447170.,35.6834869385,447170.,2.8989877701
447190.,-1.1872603893,447190.,36.8451576233,447190.,2.8860046864
447210.,-1.0526987314,447210.,38.0115623474,447210.,2.7611556053
447230.,-0.8656548262,447230.,38.7094650269,447230.,2.9101002216
447250.,-0.637231946,447250.,38.9934463501,447250.,2.8914470673
447270.,-0.2079070807,447270.,39.4442253113,447270.,3.2335407734
447290.,-0.0936155319,447290.,39.1950721741,447290.,3.0087578297
447310.,0.1534191668,447310.,38.6617813110,447310.,2.8676447868
447330.,0.5133247972,447330.,38.240524292,447330.,2.9189589024
447350.,0.8838490248,447350.,37.232585907,447350.,2.6600809097
447370.,1.0520863533,447370.,36.1455459595,447370.,2.7578542233
447390.,1.2328305244,447390.,34.8269767761,447390.,2.7021174431
447410.,1.4328233004,447410.,33.3349571228,447410.,2.2998614311
447430.,1.330308795,447430.,31.2654056549,447430.,2.2946383953
447450.,1.3169164658,447450.,29.2199420929,447450.,2.2496402264
447470.,1.1087269783,447470.,26.9980716705,447470.,2.2398536205
447490.,1.0080274343,447490.,24.5735549927,447490.,2.1110813618
447510.,0.754917264,447510.,22.0838851929,447510.,1.7420176268
447530.,0.7568680644,447530.,19.4100189209,447530.,1.4162682295
447550.,0.6261457205,447550.,16.4369812012,447550.,1.1230477095
447570.,0.6649416089,447570.,13.3915014267,447570.,1.2683249712
447590.,0.4861492217,447590.,10.2879161835,447590.,1.1173312664
447610.,0.8000618815,447610.,7.1592664719,447610.,0.5832840204
447630.,1.0165758133,447630.,4.0040106773,447630.,0.4909182489
